Folder: Flick-RT/material/gas/smooth_input (part 3)

File: h2o_uv_vis_T1_P0.txt
2.8e-07 0
2.8131e-07 0
2.8263e-07 0
2.8395e-07 0
2.8528e-07 0
2.8662e-07 0
2.8796e-07 0
2.8931e-07 0
2.9066e-07 0
2.9202e-07 0
2.9339e-07 0
2.9476e-07 0
2.9614e-07 0
2.9753e-07 0
2.9892e-07 0
3.0032e-07 0
3.0173e-07 0
3.0314e-07 0
3.0456e-07 0
3.0598e-07 0
3.0742e-07 0
3.0885e-07 0
3.103e-07 0
3.1175e-07 0
3.1321e-07 0
3.1468e-07 0
3.1615e-07 0
3.1763e-07 0
3.1912e-07 0
3.2061e-07 0
3.2211e-07 0
3.2362e-07 0
3.2514e-07 0
3.2666e-07 0
3.2819e-07 0
3.2972e-07 0
3.3127e-07 0
3.3282e-07 0
3.3438e-07 0
3.3594e-07 0
3.3752e-07 0
3.391e-07 0
3.4068e-07 0
3.4228e-07 0
3.4388e-07 0
3.4549e-07 0
3.4711e-07 0
3.4873e-07 0
3.5036e-07 0
3.52e-07 0
3.5365e-07 0
3.5531e-07 0
3.5697e-07 0
3.5864e-07 0
3.6032e-07 0
3.6201e-07 0
3.637e-07 0
3.6541e-07 0
3.6712e-07 0
3.6884e-07 0
3.7056e-07 0
3.723e-07 0
3.7404e-07 0
3.7579e-07 0
3.7755e-07 0
3.7932e-07 0
3.8109e-07 0
3.8288e-07 0
3.8467e-07 0
3.8647e-07 9.5907e-37
3.8828e-07 9.1814e-35
3.901e-07 9.3717e-32
3.9192e-07 6.359e-32
3.9376e-07 3.3521e-32
3.956e-07 7.4774e-32
3.9745e-07 1.1812e-30
3.9931e-07 6.1291e-31
4.0118e-07 2.5634e-31
4.0306e-07 1.1116e-31
4.0495e-07 3.8564e-32
4.0684e-07 7.1713e-33
4.0875e-07 1.0633e-32
4.1066e-07 8.1178e-35
4.1258e-07 3.9222e-32
4.1452e-07 1.1496e-31
4.1646e-07 7.3469e-31
4.1841e-07 3.2662e-31
4.2037e-07 1.1089e-31
4.2233e-07 2.4855e-32
4.2431e-07 4.8786e-33
4.263e-07 2.0489e-31
4.2829e-07 8.4366e-32
4.303e-07 4.5024e-32
4.3231e-07 5.0507e-33
4.3434e-07 5.8519e-36
4.3637e-07 4.127e-33
4.3841e-07 3.9941e-32
4.4046e-07 3.7752e-31
4.4253e-07 3.9546e-30
4.446e-07 2.3243e-30
4.4668e-07 1.5317e-30
4.4877e-07 4.6859e-31
4.5087e-07 8.9228e-32
4.5298e-07 1.0678e-31
4.551e-07 8.0923e-32
4.5723e-07 8.8248e-32
4.5937e-07 4.7872e-32
4.6152e-07 6.9456e-33
4.6368e-07 6.0598e-33
4.6586e-07 8.222e-32
4.6804e-07 6.2031e-31
4.7023e-07 1.584e-30
4.7243e-07 1.0288e-30
4.7464e-07 5.3504e-31
4.7686e-07 1.4255e-31
4.7909e-07 1.4337e-32
4.8134e-07 4.866e-33
4.8359e-07 2.1511e-31
4.8585e-07 1.3176e-30
4.8813e-07 1.0957e-30
4.9041e-07 6.8703e-31
4.9271e-07 3.2333e-31
4.9502e-07 5.9972e-32
4.9733e-07 7.411e-32
4.9966e-07 1.0071e-30
5.02e-07 5.5585e-30
5.0435e-07 2.1654e-29
5.0671e-07 1.2635e-29
5.0909e-07 7.9371e-30
5.1147e-07 2.6862e-30
5.1386e-07 5.4594e-31
5.1627e-07 2.0571e-31
5.1869e-07 1.086e-31
5.2111e-07 6.9513e-32
5.2355e-07 9.224e-31
5.26e-07 4.8681e-31
5.2847e-07 8.279e-31
5.3094e-07 8.6971e-31
5.3343e-07 2.9581e-31
5.3592e-07 4.5303e-31
5.3843e-07 1.3672e-30
5.4095e-07 9.7641e-30
5.4349e-07 8.3952e-30
5.4603e-07 9.8403e-30
5.4859e-07 3.1005e-30
5.5115e-07 1.7023e-30
5.5373e-07 3.743e-31
5.5633e-07 6.5541e-32
5.5893e-07 2.7773e-31
5.6155e-07 5.1467e-31
5.6418e-07 6.1216e-31
5.6682e-07 2.1072e-30
5.6947e-07 1.9872e-29
5.7214e-07 1.4049e-29
5.7482e-07 1.2068e-29
5.7751e-07 7.7589e-30
5.8021e-07 2.5975e-30
5.8293e-07 3.205e-30
5.8565e-07 6.0439e-30
5.884e-07 7.4683e-29
5.9115e-07 7.5551e-29
5.9392e-07 6.6951e-29
5.967e-07 5.0883e-29
5.9949e-07 2.679e-29
6.023e-07 6.5937e-30
6.0512e-07 1.4164e-30
6.0795e-07 3.8451e-31
6.108e-07 1.1948e-31
6.1366e-07 5.0863e-32
6.1653e-07 7.6378e-32
6.1942e-07 1.4898e-31
6.2232e-07 2.4346e-31
6.2523e-07 1.662e-30
6.2816e-07 1.6512e-29
6.311e-07 4.5696e-30
6.3405e-07 7.1578e-30
6.3702e-07 6.6759e-30
6.4e-07 5.2774e-30
6.43e-07 6.3761e-30
6.4601e-07 3.1489e-29
6.4903e-07 6.9596e-29
6.5207e-07 8.0227e-29
6.5512e-07 5.0916e-29
6.5819e-07 2.6136e-29
6.6127e-07 6.8702e-30
6.6437e-07 3.8776e-30
6.6748e-07 1.3688e-30
6.706e-07 3.3685e-31
6.7374e-07 1.0097e-31
6.769e-07 2.6714e-31
6.8006e-07 1.0185e-30
6.8325e-07 2.5243e-30
6.8645e-07 4.9833e-30
6.8966e-07 4.61e-30
6.9289e-07 1.0879e-28
6.9613e-07 1.2631e-28
6.9939e-07 1.2888e-28
7.0267e-07 1.1258e-28
7.0595e-07 6.9631e-29
7.0926e-07 3.9772e-29
7.1258e-07 3.1305e-29
7.1592e-07 9.204e-29
7.1927e-07 6.0232e-28
7.2263e-07 1.8942e-28
7.2602e-07 4.0253e-28
7.2942e-07 3.811e-28
7.3283e-07 1.6133e-28
7.3626e-07 1.1601e-28
7.3971e-07 5.6229e-29
7.4317e-07 1.299e-29
7.4665e-07 3.7258e-30
7.5015e-07 1.8589e-30
7.5366e-07 7.0074e-31
7.5719e-07 4.3158e-31
7.6073e-07 3.1019e-31
7.6429e-07 1.1112e-31
7.6787e-07 3.1107e-32
7.7146e-07 1.1877e-31
7.7508e-07 2.9017e-31
7.787e-07 5.8094e-31
7.8235e-07 1.9076e-30
7.8601e-07 1.5037e-29
7.8969e-07 8.079e-29
7.9339e-07 3.8484e-29
7.971e-07 6.9903e-29
8.0083e-07 7.8431e-29
8.0458e-07 6.1823e-29
8.0835e-07 4.5811e-29
8.1213e-07 1.5903e-28
8.1594e-07 5.6416e-28
8.1976e-07 4.0291e-28
8.2359e-07 6.4681e-28
8.2745e-07 3.089e-28
8.3132e-07 2.5927e-28
8.3522e-07 1.3066e-28
8.3913e-07 6.4091e-29
8.4305e-07 2.9614e-29
8.47e-07 1.0555e-29
8.5097e-07 2.0231e-29
8.5495e-07 1.3144e-29
8.5895e-07 5.5903e-30
8.6297e-07 1.806e-30
8.6701e-07 4.1515e-31
8.7107e-07 5.7938e-31
8.7515e-07 1.3851e-30
8.7925e-07 4.4148e-30
8.8336e-07 9.5639e-30
8.875e-07 1.816e-29
8.9165e-07 3.6264e-29
8.9583e-07 4.3433e-28
9.0002e-07 6.8073e-28
9.0423e-07 2.2537e-28
9.0847e-07 6.548e-28
9.1272e-07 6.2087e-28
9.1699e-07 6.1596e-28
9.2129e-07 3.4803e-28
9.256e-07 3.7622e-28
9.2993e-07 1.3959e-27
9.3429e-07 3.4268e-27
9.3866e-07 2.1147e-27
9.4305e-07 1.9708e-27
9.4747e-07 1.973e-27
9.5e-07 2.1486e-27

File: h2o_uv_vis_toa_T0_P0.txt
2.8e-07 -0
2.814e-07 -0
2.8282e-07 -0
2.8423e-07 -0
2.8566e-07 -0
2.8709e-07 -0
2.8853e-07 -0
2.8998e-07 -0
2.9143e-07 -0
2.929e-07 -0
2.9437e-07 -0
2.9584e-07 -0
2.9733e-07 -0
2.9882e-07 -0
3.0032e-07 -0
3.0182e-07 -0
3.0334e-07 -0
3.0486e-07 -0
3.0639e-07 -0
3.0792e-07 -0
3.0947e-07 -0
3.1102e-07 -0
3.1258e-07 -0
3.1415e-07 -0
3.1572e-07 -0
3.1731e-07 -0
3.189e-07 -0
3.205e-07 -0
3.2211e-07 -0
3.2372e-07 -0
3.2535e-07 -0
3.2698e-07 -0
3.2862e-07 -0
3.3027e-07 -0
3.3192e-07 -0
3.3359e-07 -0
3.3526e-07 -0
3.3694e-07 -0
3.3863e-07 -0
3.4033e-07 -0
3.4204e-07 -0
3.4375e-07 -0
3.4548e-07 -0
3.4721e-07 -0
3.4895e-07 -0
3.507e-07 -0
3.5246e-07 -0
3.5423e-07 -0
3.5601e-07 -0
3.5779e-07 -0
3.5959e-07 -0
3.6139e-07 -0
3.632e-07 -0
3.6502e-07 -0
3.6686e-07 -0
3.687e-07 -0
3.7054e-07 -0
3.724e-07 -0
3.7427e-07 -0
3.7615e-07 -0
3.7804e-07 -0
3.7993e-07 -0
3.8184e-07 -0
3.8375e-07 -0
3.8568e-07 2.8015e-38
3.8761e-07 7.2203e-36
3.8956e-07 2.7337e-32
3.9151e-07 7.4035e-32
3.9347e-07 4.6605e-32
3.9545e-07 4.8336e-32
3.9743e-07 8.1187e-31
3.9942e-07 4.5921e-31
4.0143e-07 1.652e-31
4.0344e-07 6.0771e-32
4.0546e-07 2.1431e-32
4.075e-07 5.1022e-33
4.0954e-07 2.4021e-35
4.116e-07 2.1198e-33
4.1366e-07 3.2073e-32
4.1574e-07 2.7312e-31
4.1782e-07 2.1803e-31
4.1992e-07 1.2413e-31
4.2202e-07 2.4856e-32
4.2414e-07 2.3439e-33
4.2627e-07 1.4865e-31
4.2841e-07 6.1646e-32
4.3055e-07 2.2947e-32
4.3271e-07 1.9872e-33
4.3488e-07 2.1172e-35
4.3707e-07 6.3371e-35
4.3926e-07 1.3154e-31
4.4146e-07 9.6775e-31
4.4368e-07 1.3197e-30
4.459e-07 1.7805e-30
4.4814e-07 4.9353e-31
4.5038e-07 9.0909e-32
4.5264e-07 5.4057e-32
4.5491e-07 6.3935e-32
4.572e-07 6.9455e-32
4.5949e-07 3.3588e-32
4.6179e-07 2.5859e-33
4.6411e-07 9.7173e-33
4.6644e-07 2.0975e-31
4.6878e-07 7.7171e-31
4.7113e-07 8.9979e-31
4.7349e-07 6.5328e-31
4.7587e-07 1.7377e-31
4.7825e-07 2.6733e-32
4.8065e-07 9.7501e-35
4.8306e-07 6.1884e-32
4.8549e-07 1.2704e-30
4.8792e-07 8.7541e-31
4.9037e-07 5.1089e-31
4.9283e-07 2.1901e-31
4.953e-07 3.483e-32
4.9779e-07 1.0845e-31
5.0028e-07 1.1108e-30
5.0279e-07 5.755e-30
5.0531e-07 6.789e-30
5.0785e-07 9.6855e-30
5.104e-07 3.4613e-30
5.1296e-07 8.7176e-31
5.1553e-07 1.9482e-31
5.1811e-07 9.0679e-32
5.2071e-07 4.719e-32
5.2332e-07 4.5878e-31
5.2595e-07 4.0057e-31
5.2859e-07 6.6194e-31
5.3124e-07 5.543e-31
5.339e-07 1.9469e-31
5.3658e-07 4.4942e-31
5.3927e-07 1.6492e-30
5.4198e-07 6.9635e-30
5.447e-07 4.5749e-30
5.4743e-07 3.6917e-30
5.5017e-07 1.9204e-30
5.5293e-07 4.3224e-31
5.5571e-07 1.0759e-31
5.5849e-07 1.6775e-31
5.613e-07 3.9351e-31
5.6411e-07 4.1195e-31
5.6694e-07 1.7637e-30
5.6978e-07 1.3584e-29
5.7264e-07 9.5713e-30
5.7551e-07 6.895e-30
5.784e-07 3.2741e-30
5.813e-07 1.9243e-30
5.8422e-07 3.0393e-30
5.8715e-07 1.3526e-29
5.9009e-07 6.9396e-29
5.9305e-07 4.1467e-29
5.9603e-07 3.7179e-29
5.9902e-07 2.2177e-29
6.0202e-07 6.0074e-30
6.0504e-07 1.1252e-30
6.0808e-07 2.619e-31
6.1113e-07 7.4259e-32
6.1419e-07 3.8979e-32
6.1727e-07 6.0695e-32
6.2037e-07 1.2097e-31
6.2348e-07 2.7328e-31
6.2661e-07 5.1928e-30
6.2975e-07 7.1397e-30
6.3291e-07 7.1182e-30
6.3608e-07 4.8948e-30
6.3927e-07 4.0945e-30
6.4248e-07 4.0552e-30
6.457e-07 1.6837e-29
6.4894e-07 4.9389e-29
6.522e-07 4.6797e-29
6.5547e-07 3.4184e-29
6.5876e-07 1.4929e-29
6.6206e-07 3.2853e-30
6.6538e-07 1.9339e-30
6.6872e-07 6.4968e-31
6.7207e-07 1.3068e-31
6.7544e-07 8.8247e-32
6.7883e-07 4.1645e-31
6.8224e-07 1.7511e-30
6.8566e-07 2.4647e-30
6.891e-07 2.4596e-30
6.9255e-07 5.4644e-29
6.9603e-07 7.9977e-29
6.9952e-07 8.0243e-29
7.0303e-07 6.1775e-29
7.0655e-07 4.1114e-29
7.101e-07 2.8785e-29
7.1366e-07 2.5963e-29
7.1724e-07 2.6283e-28
7.2084e-07 2.4072e-28
7.2445e-07 2.6626e-28
7.2809e-07 2.3245e-28
7.3174e-07 1.8277e-28
7.3541e-07 7.2785e-29
7.391e-07 4.4432e-29
7.428e-07 1.218e-29
7.4653e-07 2.8047e-30
7.5027e-07 1.3249e-30
7.5404e-07 5.2091e-31
7.5782e-07 4.4765e-31
7.6162e-07 1.9827e-31
7.6544e-07 4.3846e-32
7.6928e-07 3.1683e-32
7.7314e-07 1.3801e-31
7.7702e-07 2.2827e-31
7.8091e-07 7.2982e-31
7.8483e-07 6.0123e-30
7.8877e-07 3.8352e-29
7.9272e-07 3.7341e-29
7.967e-07 5.6437e-29
8.007e-07 5.1576e-29
8.0471e-07 4.1259e-29
8.0875e-07 3.7358e-29
8.1281e-07 1.475e-28
8.1688e-07 3.2013e-28
8.2098e-07 1.1028e-28
8.251e-07 1.1252e-28
8.2924e-07 1.8813e-28
8.334e-07 1.32e-28
8.3758e-07 6.6082e-29
8.4178e-07 3.3813e-29
8.46e-07 1.0033e-29
8.5024e-07 1.0668e-29
8.5451e-07 1.1019e-29
8.5879e-07 3.8603e-30
8.631e-07 1.1524e-30
8.6743e-07 3.3273e-31
8.7178e-07 3.4794e-31
8.7615e-07 1.4699e-30
8.8055e-07 4.723e-30
8.8496e-07 7.6098e-30
8.894e-07 1.1419e-29
8.9386e-07 1.0346e-28
8.9835e-07 3.4649e-28
9.0285e-07 2.6377e-28
9.0738e-07 3.4212e-28
9.1193e-07 3.0412e-28
9.1651e-07 3.8217e-28
9.211e-07 1.8904e-28
9.2572e-07 2.3256e-28
9.3037e-07 8.4275e-28
9.3503e-07 1.5324e-27
9.3972e-07 7.1078e-28
9.4444e-07 1.1655e-27
9.4918e-07 9.8087e-28
9.5394e-07 8.6195e-28
9.5872e-07 8.351e-28
9.6353e-07 5.9737e-28
9.6836e-07 2.5821e-28
9.7322e-07 3.0367e-28
9.781e-07 2.4283e-28
9.8301e-07 1.5589e-28
9.8794e-07 5.6927e-29
9.9289e-07 3.6236e-29
9.9787e-07 1.2522e-29
1.0029e-06 2.446e-29
1.0079e-06 1.6489e-29
1.013e-06 9.2066e-30
1.018e-06 7.9544e-30
1.0232e-06 1.5421e-29
1.0283e-06 8.6964e-30
1.03e-06 3.6832e-30

File: h2o_uv_vis_toa_T0_P1.txt
2.8e-07 -0
2.814e-07 -0
2.8282e-07 -0
2.8423e-07 -0
2.8566e-07 -0
2.8709e-07 -0
2.8853e-07 -0
2.8998e-07 -0
2.9143e-07 -0
2.929e-07 -0
2.9437e-07 -0
2.9584e-07 -0
2.9733e-07 -0
2.9882e-07 -0
3.0032e-07 -0
3.0182e-07 -0
3.0334e-07 -0
3.0486e-07 -0
3.0639e-07 -0
3.0792e-07 -0
3.0947e-07 -0
3.1102e-07 -0
3.1258e-07 -0
3.1415e-07 -0
3.1572e-07 -0
3.1731e-07 -0
3.189e-07 -0
3.205e-07 -0
3.2211e-07 -0
3.2372e-07 -0
3.2535e-07 -0
3.2698e-07 -0
3.2862e-07 -0
3.3027e-07 -0
3.3192e-07 -0
3.3359e-07 -0
3.3526e-07 -0
3.3694e-07 -0
3.3863e-07 -0
3.4033e-07 -0
3.4204e-07 -0
3.4375e-07 -0
3.4548e-07 -0
3.4721e-07 -0
3.4895e-07 -0
3.507e-07 -0
3.5246e-07 -0
3.5423e-07 -0
3.5601e-07 -0
3.5779e-07 -0
3.5959e-07 -0
3.6139e-07 -0
3.632e-07 -0
3.6502e-07 -0
3.6686e-07 -0
3.687e-07 -0
3.7054e-07 -0
3.724e-07 -0
3.7427e-07 -0
3.7615e-07 -0
3.7804e-07 -0
3.7993e-07 -0
3.8184e-07 -0
3.8375e-07 -0
3.8568e-07 2.5229e-38
3.8761e-07 6.4983e-36
3.8956e-07 2.7175e-32
3.9151e-07 7.3729e-32
3.9347e-07 4.5871e-32
3.9545e-07 4.8069e-32
3.9743e-07 8.1303e-31
3.9942e-07 4.5754e-31
4.0143e-07 1.6444e-31
4.0344e-07 6.0549e-32
4.0546e-07 2.1334e-32
4.075e-07 5.0749e-33
4.0954e-07 2.162e-35
4.116e-07 2.1079e-33
4.1366e-07 3.1795e-32
4.1574e-07 2.7388e-31
4.1782e-07 2.1549e-31
4.1992e-07 1.2294e-31
4.2202e-07 2.4784e-32
4.2414e-07 2.3032e-33
4.2627e-07 1.4826e-31
4.2841e-07 6.1294e-32
4.3055e-07 2.2817e-32
4.3271e-07 1.9799e-33
4.3488e-07 1.9072e-35
4.3707e-07 5.7041e-35
4.3926e-07 1.3097e-31
4.4146e-07 9.6339e-31
4.4368e-07 1.315e-30
4.459e-07 1.7771e-30
4.4814e-07 4.8684e-31
4.5038e-07 9.0544e-32
4.5264e-07 5.3806e-32
4.5491e-07 6.3678e-32
4.572e-07 6.9128e-32
4.5949e-07 3.3436e-32
4.6179e-07 2.5733e-33
4.6411e-07 9.7226e-33
4.6644e-07 2.0877e-31
4.6878e-07 7.7127e-31
4.7113e-07 8.9609e-31
4.7349e-07 6.4993e-31
4.7587e-07 1.7286e-31
4.7825e-07 2.8473e-32
4.8065e-07 8.7758e-35
4.8306e-07 6.1539e-32
4.8549e-07 1.2652e-30
4.8792e-07 8.7284e-31
4.9037e-07 5.0877e-31
4.9283e-07 2.1616e-31
4.953e-07 3.4741e-32
4.9779e-07 1.0807e-31
5.0028e-07 1.1054e-30
5.0279e-07 5.7552e-30
5.0531e-07 6.7675e-30
5.0785e-07 9.6559e-30
5.104e-07 3.4517e-30
5.1296e-07 8.6693e-31
5.1553e-07 1.9469e-31
5.1811e-07 9.0714e-32
5.2071e-07 4.7104e-32
5.2332e-07 4.5773e-31
5.2595e-07 3.98e-31
5.2859e-07 6.5752e-31
5.3124e-07 5.4681e-31
5.339e-07 1.9479e-31
5.3658e-07 4.5578e-31
5.3927e-07 1.641e-30
5.4198e-07 6.9374e-30
5.447e-07 4.5538e-30
5.4743e-07 3.6762e-30
5.5017e-07 1.9103e-30
5.5293e-07 4.3082e-31
5.5571e-07 1.0731e-31
5.5849e-07 1.674e-31
5.613e-07 3.9214e-31
5.6411e-07 4.1005e-31
5.6694e-07 1.7516e-30
5.6978e-07 1.3529e-29
5.7264e-07 9.5296e-30
5.7551e-07 6.8543e-30
5.784e-07 3.2585e-30
5.813e-07 1.9115e-30
5.8422e-07 3.0251e-30
5.8715e-07 1.3625e-29
5.9009e-07 6.93e-29
5.9305e-07 4.1535e-29
5.9603e-07 3.7147e-29
5.9902e-07 2.2101e-29
6.0202e-07 5.9796e-30
6.0504e-07 1.1208e-30
6.0808e-07 2.6142e-31
6.1113e-07 7.4029e-32
6.1419e-07 3.8896e-32
6.1727e-07 6.0583e-32
6.2037e-07 1.2033e-31
6.2348e-07 2.7222e-31
6.2661e-07 5.1612e-30
6.2975e-07 7.0895e-30
6.3291e-07 7.0961e-30
6.3608e-07 4.8574e-30
6.3927e-07 4.0874e-30
6.4248e-07 4.0425e-30
6.457e-07 1.6752e-29
6.4894e-07 4.9295e-29
6.522e-07 4.6811e-29
6.5547e-07 3.4087e-29
6.5876e-07 1.4883e-29
6.6206e-07 3.2673e-30
6.6538e-07 1.9265e-30
6.6872e-07 6.4591e-31
6.7207e-07 1.3002e-31
6.7544e-07 8.7906e-32
6.7883e-07 4.1421e-31
6.8224e-07 1.7423e-30
6.8566e-07 2.4566e-30
6.891e-07 2.4711e-30
6.9255e-07 5.4666e-29
6.9603e-07 7.9954e-29
6.9952e-07 7.9984e-29
7.0303e-07 6.1713e-29
7.0655e-07 4.0875e-29
7.101e-07 2.8762e-29
7.1366e-07 2.5758e-29
7.1724e-07 2.6327e-28
7.2084e-07 2.4024e-28
7.2445e-07 2.6607e-28
7.2809e-07 2.3234e-28
7.3174e-07 1.8319e-28
7.3541e-07 7.2773e-29
7.391e-07 4.4342e-29
7.428e-07 1.2166e-29
7.4653e-07 2.7959e-30
7.5027e-07 1.3218e-30
7.5404e-07 5.2225e-31
7.5782e-07 4.4788e-31
7.6162e-07 2.0036e-31
7.6544e-07 4.3373e-32
7.6928e-07 3.1628e-32
7.7314e-07 1.3769e-31
7.7702e-07 2.2702e-31
7.8091e-07 7.2502e-31
7.8483e-07 5.9993e-30
7.8877e-07 3.8264e-29
7.9272e-07 3.7322e-29
7.967e-07 5.6431e-29
8.007e-07 5.1656e-29
8.0471e-07 4.1219e-29
8.0875e-07 3.735e-29
8.1281e-07 1.477e-28
8.1688e-07 3.2053e-28
8.2098e-07 1.0983e-28
8.251e-07 1.1221e-28
8.2924e-07 1.8796e-28
8.334e-07 1.3208e-28
8.3758e-07 6.6156e-29
8.4178e-07 3.3817e-29
8.46e-07 1.0041e-29
8.5024e-07 1.0662e-29
8.5451e-07 1.1028e-29
8.5879e-07 3.8578e-30
8.631e-07 1.1455e-30
8.6743e-07 3.3171e-31
8.7178e-07 3.47e-31
8.7615e-07 1.4712e-30
8.8055e-07 4.725e-30
8.8496e-07 7.6028e-30
8.894e-07 1.1393e-29
8.9386e-07 1.0349e-28
8.9835e-07 3.4911e-28
9.0285e-07 2.6204e-28
9.0738e-07 3.4042e-28
9.1193e-07 3.0497e-28
9.1651e-07 3.8445e-28
9.211e-07 1.8912e-28
9.2572e-07 2.3121e-28
9.3037e-07 8.3815e-28
9.3503e-07 1.5347e-27
9.3972e-07 7.051e-28
9.4444e-07 1.1684e-27
9.4918e-07 9.8238e-28
9.5394e-07 8.5201e-28
9.5872e-07 8.3884e-28
9.6353e-07 6.0241e-28
9.6836e-07 2.5908e-28
9.7322e-07 3.0383e-28
9.781e-07 2.4139e-28
9.8301e-07 1.5535e-28
9.8794e-07 5.6986e-29
9.9289e-07 3.6254e-29
9.9787e-07 1.2511e-29
1.0029e-06 2.4518e-29
1.0079e-06 1.6421e-29
1.013e-06 9.201e-30
1.018e-06 7.9495e-30
1.0232e-06 1.542e-29
1.0283e-06 8.6865e-30
1.03e-06 3.612e-30

File: h2o_uv_vis_toa_T1_P0.txt
2.8e-07 -0
2.814e-07 -0
2.8282e-07 -0
2.8423e-07 -0
2.8566e-07 -0
2.8709e-07 -0
2.8853e-07 -0
2.8998e-07 -0
2.9143e-07 -0
2.929e-07 -0
2.9437e-07 -0
2.9584e-07 -0
2.9733e-07 -0
2.9882e-07 -0
3.0032e-07 -0
3.0182e-07 -0
3.0334e-07 -0
3.0486e-07 -0
3.0639e-07 -0
3.0792e-07 -0
3.0947e-07 -0
3.1102e-07 -0
3.1258e-07 -0
3.1415e-07 -0
3.1572e-07 -0
3.1731e-07 -0
3.189e-07 -0
3.205e-07 -0
3.2211e-07 -0
3.2372e-07 -0
3.2535e-07 -0
3.2698e-07 -0
3.2862e-07 -0
3.3027e-07 -0
3.3192e-07 -0
3.3359e-07 -0
3.3526e-07 -0
3.3694e-07 -0
3.3863e-07 -0
3.4033e-07 -0
3.4204e-07 -0
3.4375e-07 -0
3.4548e-07 -0
3.4721e-07 -0
3.4895e-07 -0
3.507e-07 -0
3.5246e-07 -0
3.5423e-07 -0
3.5601e-07 -0
3.5779e-07 -0
3.5959e-07 -0
3.6139e-07 -0
3.632e-07 -0
3.6502e-07 -0
3.6686e-07 -0
3.687e-07 -0
3.7054e-07 -0
3.724e-07 -0
3.7427e-07 -0
3.7615e-07 -0
3.7804e-07 -0
3.7993e-07 -0
3.8184e-07 -0
3.8375e-07 -0
3.8568e-07 4.2585e-38
3.8761e-07 1.0924e-35
3.8956e-07 3.7356e-32
3.9151e-07 1.0123e-31
3.9347e-07 6.3556e-32
3.9545e-07 6.544e-32
3.9743e-07 1.092e-30
3.9942e-07 6.1834e-31
4.0143e-07 2.2241e-31
4.0344e-07 8.2131e-32
4.0546e-07 2.9045e-32
4.075e-07 6.9235e-33
4.0954e-07 3.5485e-35
4.116e-07 2.1252e-33
4.1366e-07 4.3572e-32
4.1574e-07 3.6708e-31
4.1782e-07 2.9463e-31
4.1992e-07 1.6726e-31
4.2202e-07 3.3005e-32
4.2414e-07 3.1871e-33
4.2627e-07 1.9998e-31
4.2841e-07 8.352e-32
4.3055e-07 3.1047e-32
4.3271e-07 2.6948e-33
4.3488e-07 3.1381e-35
4.3707e-07 9.3567e-35
4.3926e-07 1.7744e-31
4.4146e-07 1.3005e-30
4.4368e-07 1.7774e-30
4.459e-07 2.3978e-30
4.4814e-07 6.6443e-31
4.5038e-07 1.2278e-31
4.5264e-07 7.3313e-32
4.5491e-07 8.7115e-32
4.572e-07 9.3883e-32
4.5949e-07 4.5675e-32
4.6179e-07 3.5361e-33
4.6411e-07 1.3226e-32
4.6644e-07 2.8332e-31
4.6878e-07 1.0395e-30
4.7113e-07 1.213e-30
4.7349e-07 8.8164e-31
4.7587e-07 2.3537e-31
4.7825e-07 3.679e-32
4.8065e-07 1.4478e-34
4.8306e-07 8.4364e-32
4.8549e-07 1.7097e-30
4.8792e-07 1.1759e-30
4.9037e-07 6.9031e-31
4.9283e-07 2.971e-31
4.953e-07 4.7704e-32
4.9779e-07 1.4739e-31
5.0028e-07 1.4977e-30
5.0279e-07 7.7371e-30
5.0531e-07 9.1311e-30
5.0785e-07 1.3016e-29
5.104e-07 4.6478e-30
5.1296e-07 1.1773e-30
5.1553e-07 2.6677e-31
5.1811e-07 1.249e-31
5.2071e-07 6.5201e-32
5.2332e-07 6.0825e-31
5.2595e-07 5.4606e-31
5.2859e-07 9.0137e-31
5.3124e-07 7.546e-31
5.339e-07 2.6711e-31
5.3658e-07 6.138e-31
5.3927e-07 2.2295e-30
5.4198e-07 9.3787e-30
5.447e-07 6.1708e-30
5.4743e-07 4.9624e-30
5.5017e-07 2.5964e-30
5.5293e-07 5.8846e-31
5.5571e-07 1.4847e-31
5.5849e-07 2.3061e-31
5.613e-07 5.38e-31
5.6411e-07 5.6464e-31
5.6694e-07 2.3885e-30
5.6978e-07 1.8243e-29
5.7264e-07 1.2886e-29
5.7551e-07 9.2947e-30
5.784e-07 4.4234e-30
5.813e-07 2.6132e-30
5.8422e-07 4.1117e-30
5.8715e-07 1.8195e-29
5.9009e-07 9.2255e-29
5.9305e-07 5.4826e-29
5.9603e-07 4.9396e-29
5.9902e-07 2.9723e-29
6.0202e-07 8.0851e-30
6.0504e-07 1.5307e-30
6.0808e-07 3.6062e-31
6.1113e-07 1.0263e-31
6.1419e-07 5.4333e-32
6.1727e-07 8.4652e-32
6.2037e-07 1.6856e-31
6.2348e-07 3.7837e-31
6.2661e-07 7.0448e-30
6.2975e-07 9.7061e-30
6.3291e-07 9.641e-30
6.3608e-07 6.6651e-30
6.3927e-07 5.5648e-30
6.4248e-07 5.5192e-30
6.457e-07 2.2772e-29
6.4894e-07 6.5872e-29
6.522e-07 6.1898e-29
6.5547e-07 4.5502e-29
6.5876e-07 2.0163e-29
6.6206e-07 4.4793e-30
6.6538e-07 2.6493e-30
6.6872e-07 8.9606e-31
6.7207e-07 1.8324e-31
6.7544e-07 1.2479e-31
6.7883e-07 5.7979e-31
6.8224e-07 2.4093e-30
6.8566e-07 3.3853e-30
6.891e-07 3.3571e-30
6.9255e-07 7.2716e-29
6.9603e-07 1.0325e-28
6.9952e-07 1.0595e-28
7.0303e-07 8.0974e-29
7.0655e-07 5.5894e-29
7.101e-07 3.9541e-29
7.1366e-07 3.5708e-29
7.1724e-07 3.3265e-28
7.2084e-07 3.0739e-28
7.2445e-07 3.3759e-28
7.2809e-07 2.9933e-28
7.3174e-07 2.3304e-28
7.3541e-07 9.7171e-29
7.391e-07 6.0019e-29
7.428e-07 1.6762e-29
7.4653e-07 3.9044e-30
7.5027e-07 1.8531e-30
7.5404e-07 7.2858e-31
7.5782e-07 6.2522e-31
7.6162e-07 2.7331e-31
7.6544e-07 6.1916e-32
7.6928e-07 4.3998e-32
7.7314e-07 1.9591e-31
7.7702e-07 3.3545e-31
7.8091e-07 1.0385e-30
7.8483e-07 8.3945e-30
7.8877e-07 5.2003e-29
7.9272e-07 5.0084e-29
7.967e-07 7.591e-29
8.007e-07 6.9294e-29
8.0471e-07 5.62e-29
8.0875e-07 5.1285e-29
8.1281e-07 1.9197e-28
8.1688e-07 4.001e-28
8.2098e-07 1.425e-28
8.251e-07 1.4498e-28
8.2924e-07 2.3729e-28
8.334e-07 1.7018e-28
8.3758e-07 8.7527e-29
8.4178e-07 4.6014e-29
8.46e-07 1.3854e-29
8.5024e-07 1.4748e-29
8.5451e-07 1.5163e-29
8.5879e-07 5.3696e-30
8.631e-07 1.6116e-30
8.6743e-07 4.6329e-31
8.7178e-07 4.8567e-31
8.7615e-07 2.0455e-30
8.8055e-07 6.5459e-30
8.8496e-07 1.0492e-29
8.894e-07 1.5684e-29
8.9386e-07 1.335e-28
8.9835e-07 4.2545e-28
9.0285e-07 3.3615e-28
9.0738e-07 4.3365e-28
9.1193e-07 3.8454e-28
9.1651e-07 4.8601e-28
9.211e-07 2.4335e-28
9.2572e-07 3.0648e-28
9.3037e-07 1.0656e-27
9.3503e-07 1.9134e-27
9.3972e-07 9.1239e-28
9.4444e-07 1.4418e-27
9.4918e-07 1.225e-27
9.5394e-07 1.1043e-27
9.5872e-07 1.0376e-27
9.6353e-07 7.407e-28
9.6836e-07 3.2575e-28
9.7322e-07 3.8785e-28
9.781e-07 3.1264e-28
9.8301e-07 2.0132e-28
9.8794e-07 7.5538e-29
9.9289e-07 4.9256e-29
9.9787e-07 1.7296e-29
1.0029e-06 3.3288e-29
1.0079e-06 2.27e-29
1.013e-06 1.2729e-29
1.018e-06 1.1004e-29
1.0232e-06 2.118e-29
1.0283e-06 1.1982e-29
1.03e-06 5.1884e-30

File: no2_uv_vis_T0_P0.txt
2.8e-07 5.6967e-24
2.8131e-07 6.1755e-24
2.8263e-07 5.7623e-24
2.8395e-07 7.0371e-24
2.8528e-07 7.6608e-24
2.8662e-07 7.9528e-24
2.8796e-07 7.8883e-24
2.8931e-07 8.6418e-24
2.9066e-07 9.4231e-24
2.9202e-07 1.072e-23
2.9339e-07 1.0222e-23
2.9476e-07 1.1328e-23
2.9614e-07 1.1327e-23
2.9753e-07 1.4669e-23
2.9892e-07 1.3342e-23
3.0032e-07 1.3369e-23
3.0173e-07 1.4506e-23
3.0314e-07 1.6726e-23
3.0456e-07 1.7021e-23
3.0598e-07 1.6697e-23
3.0742e-07 1.8488e-23
3.0885e-07 1.9388e-23
3.103e-07 1.988e-23
3.1175e-07 2.145e-23
3.1321e-07 2.2115e-23
3.1468e-07 2.3393e-23
3.1615e-07 2.2885e-23
3.1763e-07 2.6671e-23
3.1912e-07 2.5603e-23
3.2061e-07 2.7973e-23
3.2211e-07 2.8169e-23
3.2362e-07 2.9294e-23
3.2514e-07 3.1572e-23
3.2666e-07 3.2335e-23
3.2819e-07 3.2888e-23
3.2972e-07 3.4786e-23
3.3127e-07 3.4285e-23
3.3282e-07 3.9645e-23
3.3438e-07 3.495e-23
3.3594e-07 3.7635e-23
3.3752e-07 3.7256e-23
3.391e-07 4.433e-23
3.4068e-07 4.3699e-23
3.4228e-07 4.1419e-23
3.4388e-07 4.2962e-23
3.4549e-07 4.4155e-23
3.4711e-07 4.7376e-23
3.4873e-07 5.333e-23
3.5036e-07 4.525e-23
3.52e-07 4.6665e-23
3.5365e-07 4.7044e-23
3.5531e-07 5.0989e-23
3.5697e-07 5.6063e-23
3.5864e-07 5.0234e-23
3.6032e-07 5.0237e-23
3.6201e-07 5.2346e-23
3.637e-07 5.1431e-23
3.6541e-07 6.2015e-23
3.6712e-07 5.5447e-23
3.6884e-07 5.4922e-23
3.7056e-07 5.5158e-23
3.723e-07 6.3151e-23
3.7404e-07 5.6754e-23
3.7579e-07 6.3226e-23
3.7755e-07 5.5733e-23
3.7932e-07 6.0421e-23
3.8109e-07 6.1817e-23
3.8288e-07 5.7233e-23
3.8467e-07 6.4084e-23
3.8647e-07 5.8024e-23
3.8828e-07 6.1663e-23
3.901e-07 6.3294e-23
3.9192e-07 6.7018e-23
3.9376e-07 5.8058e-23
3.956e-07 6.5764e-23
3.9745e-07 5.9796e-23
3.9931e-07 6.0729e-23
4.0118e-07 6.7136e-23
4.0306e-07 5.6104e-23
4.0495e-07 6.5383e-23
4.0684e-07 5.2326e-23
4.0875e-07 6.8797e-23
4.1066e-07 6.7661e-23
4.1258e-07 6.0459e-23
4.1452e-07 5.9243e-23
4.1646e-07 5.186e-23
4.1841e-07 5.9404e-23
4.2037e-07 6.2095e-23
4.2233e-07 6.3267e-23
4.2431e-07 6.6083e-23
4.263e-07 4.7362e-23
4.2829e-07 6.0586e-23
4.303e-07 5.5216e-23
4.3231e-07 4.8403e-23
4.3434e-07 5.8518e-23
4.3637e-07 5.6331e-23
4.3841e-07 4.9611e-23
4.4046e-07 4.9604e-23
4.4253e-07 4.2398e-23
4.446e-07 6.2545e-23
4.4668e-07 4.3819e-23
4.4877e-07 5.594e-23
4.5087e-07 4.6508e-23
4.5298e-07 4.6595e-23
4.551e-07 4.5397e-23
4.5723e-07 4.3827e-23
4.5937e-07 4.2947e-23
4.6152e-07 4.1896e-23
4.6368e-07 5.1753e-23
4.6586e-07 3.1249e-23
4.6804e-07 4.0952e-23
4.7023e-07 3.4646e-23
4.7243e-07 3.4489e-23
4.7464e-07 4.8265e-23
4.7686e-07 3.392e-23
4.7909e-07 3.7359e-23
4.8134e-07 3.6517e-23
4.8359e-07 2.4651e-23
4.8585e-07 2.895e-23
4.8813e-07 3.6403e-23
4.9041e-07 3.0471e-23
4.9271e-07 2.6341e-23
4.9502e-07 3.3472e-23
4.9733e-07 2.5343e-23
4.9966e-07 1.6301e-23
5.02e-07 2.2956e-23
5.0435e-07 3.0039e-23
5.0671e-07 2.2549e-23
5.0909e-07 2.5916e-23
5.1147e-07 2.4303e-23
5.1386e-07 1.8347e-23
5.1627e-07 1.5016e-23
5.1869e-07 1.9536e-23
5.2111e-07 1.5694e-23
5.2355e-07 1.5099e-23
5.26e-07 2.2406e-23
5.2847e-07 1.695e-23
5.3094e-07 1.5743e-23
5.3343e-07 1.4361e-23
5.3592e-07 9.0097e-24
5.3843e-07 1.2657e-23
5.4095e-07 9.3644e-24
5.4349e-07 1.475e-23
5.4603e-07 1.224e-23
5.4859e-07 1.3468e-23
5.5115e-07 9.5406e-24
5.5373e-07 1.0491e-23
5.5633e-07 6.6009e-24
5.5893e-07 5.7378e-24
5.6155e-07 7.2506e-24
5.6418e-07 1.2138e-23
5.6682e-07 6.1124e-24
5.6947e-07 7.757e-24
5.7214e-07 9.6722e-24
5.7482e-07 4.9713e-24
5.7751e-07 3.7413e-24
5.8021e-07 5.5286e-24
5.8293e-07 3.7183e-24
5.8565e-07 6.1033e-24
5.884e-07 4.2579e-24
5.9115e-07 6.4649e-24
5.9392e-07 5.0691e-24
5.967e-07 3.2138e-24
5.9949e-07 4.4365e-24
6.023e-07 3.6357e-24
6.0512e-07 1.8676e-24
6.0795e-07 2.0755e-24
6.108e-07 2.5936e-24
6.1366e-07 3.6092e-24
6.1653e-07 4.0926e-24
6.1942e-07 2.5777e-24
6.2232e-07 2.1749e-24
6.2523e-07 2.183e-24
6.2816e-07 1.3836e-24
6.311e-07 1.2841e-24
6.3405e-07 1.4921e-24
6.3702e-07 1.5367e-24
6.4e-07 1.5562e-24
6.43e-07 2.155e-24
6.4601e-07 2.1255e-24
6.4903e-07 1.2638e-24
6.5207e-07 1.2231e-24
6.5512e-07 1.0033e-24
6.5819e-07 6.9738e-25
6.6127e-07 4.9168e-25
6.6437e-07 4.6444e-25
6.6748e-07 1.8293e-26
6.706e-07 0
6.7374e-07 0
6.769e-07 0
6.8006e-07 0
6.8325e-07 0
6.8645e-07 0
6.8966e-07 0
6.9289e-07 0
6.9613e-07 0
6.9939e-07 0
7.0267e-07 0
7.0595e-07 0
7.0926e-07 0
7.1258e-07 0
7.1592e-07 0
7.1927e-07 0
7.2263e-07 0
7.2602e-07 0
7.2942e-07 0
7.3283e-07 0
7.3626e-07 0
7.3971e-07 0
7.4317e-07 0
7.4665e-07 0
7.5015e-07 0
7.5366e-07 0
7.5719e-07 0
7.6073e-07 0
7.6429e-07 0
7.6787e-07 0
7.7146e-07 0
7.7508e-07 0
7.787e-07 0
7.8235e-07 0
7.8601e-07 0
7.8969e-07 0
7.9339e-07 0
7.971e-07 0
8.0083e-07 0
8.0458e-07 0
8.0835e-07 0
8.1213e-07 0
8.1594e-07 0
8.1976e-07 0
8.2359e-07 0
8.2745e-07 0
8.3132e-07 0
8.3522e-07 0
8.3913e-07 0
8.4305e-07 0
8.47e-07 0
8.5097e-07 0
8.5495e-07 0
8.5895e-07 0
8.6297e-07 0
8.6701e-07 0
8.7107e-07 0
8.7515e-07 0
8.7925e-07 0
8.8336e-07 0
8.875e-07 0
8.9165e-07 0
8.9583e-07 0
9.0002e-07 0
9.0423e-07 0
9.0847e-07 0
9.1272e-07 0
9.1699e-07 0
9.2129e-07 0
9.256e-07 0
9.2993e-07 0
9.3429e-07 0
9.3866e-07 0
9.4305e-07 0
9.4747e-07 0
9.5e-07 0