Folder: Flick-RT/material/gas/smooth_input (part 7)

File: o3_uv_vis_toa_T1_P0.txt
2.8e-07 3.8293e-22
2.814e-07 3.2892e-22
2.8282e-07 2.9432e-22
2.8423e-07 2.5342e-22
2.8566e-07 2.1922e-22
2.8709e-07 1.9121e-22
2.8853e-07 1.5723e-22
2.8998e-07 1.3343e-22
2.9143e-07 1.1081e-22
2.929e-07 9.3833e-23
2.9437e-07 7.7296e-23
2.9584e-07 6.2319e-23
2.9733e-07 5.1033e-23
2.9882e-07 4.2136e-23
3.0032e-07 3.4079e-23
3.0182e-07 2.7502e-23
3.0334e-07 2.1838e-23
3.0486e-07 1.7924e-23
3.0639e-07 1.5107e-23
3.0792e-07 1.1649e-23
3.0947e-07 9.3798e-24
3.1102e-07 7.7496e-24
3.1258e-07 5.8413e-24
3.1415e-07 5.003e-24
3.1572e-07 4.2279e-24
3.1731e-07 3.2533e-24
3.189e-07 2.0234e-24
3.205e-07 2.0042e-24
3.2211e-07 1.8209e-24
3.2372e-07 7.67e-25
3.2535e-07 1.2238e-24
3.2698e-07 5.184e-25
3.2862e-07 5.8178e-25
3.3027e-07 4.2702e-25
3.3192e-07 2.8431e-25
3.3359e-07 3.4457e-25
3.3526e-07 9.8505e-26
3.3694e-07 2.0573e-25
3.3863e-07 6.5562e-26
3.4033e-07 1.3358e-25
3.4204e-07 2.4297e-26
3.4375e-07 7.0719e-26
3.4548e-07 2.4813e-26
3.4721e-07 2.9301e-26
3.4895e-07 6.6137e-27
3.507e-07 7.4097e-27
3.5246e-07 1.2407e-26
3.5423e-07 1.82e-27
3.5601e-07 1.4043e-27
3.5779e-07 8.4652e-28
3.5959e-07 4.8562e-27
3.6139e-07 9.1678e-28
3.632e-07 3.0065e-28
3.6502e-07 4.0792e-28
3.6686e-07 9.805e-29
3.687e-07 1.2407e-28
3.7054e-07 2.6971e-29
3.724e-07 2.4726e-29
3.7427e-07 1.0065e-28
3.7615e-07 4.0011e-27
3.7804e-07 3.3606e-28
3.7993e-07 8.3759e-29
3.8184e-07 1.0142e-28
3.8375e-07 9.8961e-29
3.8568e-07 7.5025e-29
3.8761e-07 4.8516e-28
3.8956e-07 1.2692e-27
3.9151e-07 1.0131e-27
3.9347e-07 5.6051e-28
3.9545e-07 6.0756e-28
3.9743e-07 5.1414e-28
3.9942e-07 4.6786e-28
4.0143e-07 5.1454e-28
4.0344e-07 5.7645e-28
4.0546e-07 5.9917e-28
4.075e-07 1.1449e-27
4.0954e-07 1.6572e-27
4.116e-07 1.6725e-27
4.1366e-07 1.3895e-27
4.1574e-07 2.134e-27
4.1782e-07 2.7225e-27
4.1992e-07 2.6333e-27
4.2202e-07 3.6622e-27
4.2414e-07 5.5677e-27
4.2627e-07 6.3945e-27
4.2841e-07 5.5652e-27
4.3055e-07 5.8179e-27
4.3271e-07 7.8012e-27
4.3488e-07 7.9794e-27
4.3707e-07 8.6334e-27
4.3926e-07 1.2381e-26
4.4146e-07 1.6735e-26
4.4368e-07 1.819e-26
4.459e-07 1.5502e-26
4.4814e-07 1.5806e-26
4.5038e-07 1.9717e-26
4.5264e-07 2.011e-26
4.5491e-07 2.1959e-26
4.572e-07 2.713e-26
4.5949e-07 3.653e-26
4.6179e-07 4.194e-26
4.6411e-07 3.74e-26
4.6644e-07 3.4122e-26
4.6878e-07 4.0509e-26
4.7113e-07 4.3771e-26
4.7349e-07 4.4051e-26
4.7587e-07 5.1277e-26
4.7825e-07 6.6417e-26
4.8065e-07 8.3062e-26
4.8306e-07 8.7847e-26
4.8549e-07 8.0774e-26
4.8792e-07 7.7297e-26
4.9037e-07 8.4678e-26
4.9283e-07 8.8731e-26
4.953e-07 9.1428e-26
4.9779e-07 1.0378e-25
5.0028e-07 1.2798e-25
5.0279e-07 1.5787e-25
5.0531e-07 1.7405e-25
5.0785e-07 1.7175e-25
5.104e-07 1.6094e-25
5.1296e-07 1.6227e-25
5.1553e-07 1.7124e-25
5.1811e-07 1.7928e-25
5.2071e-07 1.8932e-25
5.2332e-07 2.0841e-25
5.2595e-07 2.3422e-25
5.2859e-07 2.6213e-25
5.3124e-07 2.8366e-25
5.339e-07 2.9232e-25
5.3658e-07 2.918e-25
5.3927e-07 2.985e-25
5.4198e-07 3.1997e-25
5.447e-07 3.337e-25
5.4743e-07 3.4256e-25
5.5017e-07 3.4854e-25
5.5293e-07 3.5536e-25
5.5571e-07 3.6848e-25
5.5849e-07 3.9124e-25
5.613e-07 4.2065e-25
5.6411e-07 4.4586e-25
5.6694e-07 4.6639e-25
5.6978e-07 4.9614e-25
5.7264e-07 5.0697e-25
5.7551e-07 5.0745e-25
5.784e-07 4.9272e-25
5.813e-07 4.7683e-25
5.8422e-07 4.6759e-25
5.8715e-07 4.7388e-25
5.9009e-07 5.0246e-25
5.9305e-07 5.0669e-25
5.9603e-07 5.3405e-25
5.9902e-07 5.541e-25
6.0202e-07 5.516e-25
6.0504e-07 5.3703e-25
6.0808e-07 5.1284e-25
6.1113e-07 4.8784e-25
6.1419e-07 4.7278e-25
6.1727e-07 4.5507e-25
6.2037e-07 4.3943e-25
6.2348e-07 4.2549e-25
6.2661e-07 4.1771e-25
6.2975e-07 4.0624e-25
6.3291e-07 3.8592e-25
6.3608e-07 3.6401e-25
6.3927e-07 3.4368e-25
6.4248e-07 3.2342e-25
6.457e-07 3.1679e-25
6.4894e-07 3.1227e-25
6.522e-07 2.9518e-25
6.5547e-07 2.7856e-25
6.5876e-07 2.573e-25
6.6206e-07 2.3704e-25
6.6538e-07 2.2202e-25
6.6872e-07 2.0522e-25
6.7207e-07 1.9043e-25
6.7544e-07 1.7834e-25
6.7883e-07 1.6838e-25
6.8224e-07 1.6217e-25
6.8566e-07 1.5654e-25
6.891e-07 1.6098e-25
6.9255e-07 1.4948e-25
6.9603e-07 1.3999e-25
6.9952e-07 1.3303e-25
7.0303e-07 1.2389e-25
7.0655e-07 1.191e-25
7.101e-07 1.1431e-25
7.1366e-07 1.1069e-25
7.1724e-07 1.2676e-25
7.2084e-07 1.1552e-25
7.2445e-07 1.0962e-25
7.2809e-07 1.0313e-25
7.3174e-07 9.6595e-26
7.3541e-07 8.7353e-26
7.391e-07 8.4024e-26
7.428e-07 7.9646e-26
7.4653e-07 7.8488e-26
7.5027e-07 7.4482e-26
7.5404e-07 6.6537e-26
7.5782e-07 6.4598e-26
7.6162e-07 7.7081e-26
7.6544e-07 7.3662e-26
7.6928e-07 6.3705e-26
7.7314e-07 6.1138e-26
7.7702e-07 6.3928e-26
7.8091e-07 6.4213e-26
7.8483e-07 6.1059e-26
7.8877e-07 6.212e-26
7.9272e-07 5.8889e-26
7.967e-07 -0
8.007e-07 -0
8.0471e-07 -0
8.0875e-07 -0
8.1281e-07 -0
8.1688e-07 -0
8.2098e-07 -0
8.251e-07 -0
8.2924e-07 -0
8.334e-07 -0
8.3758e-07 -0
8.4178e-07 -0
8.46e-07 -0
8.5024e-07 -0
8.5451e-07 -0
8.5879e-07 -0
8.631e-07 -0
8.6743e-07 -0
8.7178e-07 -0
8.7615e-07 -0
8.8055e-07 -0
8.8496e-07 -0
8.894e-07 -0
8.9386e-07 -0
8.9835e-07 -0
9.0285e-07 -0
9.0738e-07 -0
9.1193e-07 -0
9.1651e-07 -0
9.211e-07 -0
9.2572e-07 -0
9.3037e-07 -0
9.3503e-07 -0
9.3972e-07 -0
9.4444e-07 -0
9.4918e-07 -0
9.5394e-07 -0
9.5872e-07 -0
9.6353e-07 -0
9.6836e-07 -0
9.7322e-07 -0
9.781e-07 -0
9.8301e-07 -0
9.8794e-07 -0
9.9289e-07 -0
9.9787e-07 -0
1.0029e-06 -0
1.0079e-06 -0
1.013e-06 -0
1.018e-06 -0
1.0232e-06 -0
1.0283e-06 -0
1.03e-06 -0