Folder: Flick-RT/material/gas/smooth_input (part 4)

File: no2_uv_vis_T0_P1.txt
2.8e-07 5.7347e-24
2.8141e-07 6.0526e-24
2.8282e-07 6.0222e-24
2.8424e-07 7.2219e-24
2.8567e-07 7.9185e-24
2.8711e-07 7.8595e-24
2.8855e-07 8.2509e-24
2.9e-07 9.2376e-24
2.9145e-07 1.0456e-23
2.9292e-07 1.0525e-23
2.9439e-07 1.0878e-23
2.9587e-07 1.1188e-23
2.9736e-07 1.4201e-23
2.9885e-07 1.3447e-23
3.0035e-07 1.3476e-23
3.0186e-07 1.4824e-23
3.0338e-07 1.6719e-23
3.049e-07 1.7173e-23
3.0643e-07 1.7359e-23
3.0797e-07 1.8035e-23
3.0952e-07 2.0272e-23
3.1108e-07 2.0879e-23
3.1264e-07 2.2394e-23
3.1421e-07 2.228e-23
3.1579e-07 2.3384e-23
3.1738e-07 2.5686e-23
3.1897e-07 2.5921e-23
3.2057e-07 2.7734e-23
3.2218e-07 2.8306e-23
3.238e-07 2.9156e-23
3.2543e-07 3.1744e-23
3.2707e-07 3.2153e-23
3.2871e-07 3.2793e-23
3.3036e-07 3.4143e-23
3.3202e-07 3.5453e-23
3.3369e-07 3.774e-23
3.3537e-07 3.7953e-23
3.3705e-07 3.8531e-23
3.3874e-07 4.2724e-23
3.4045e-07 4.3318e-23
3.4216e-07 4.2361e-23
3.4388e-07 4.235e-23
3.456e-07 4.4873e-23
3.4734e-07 4.7617e-23
3.4909e-07 4.8909e-23
3.5084e-07 4.719e-23
3.526e-07 4.5575e-23
3.5437e-07 5.3629e-23
3.5615e-07 4.9752e-23
3.5794e-07 5.4314e-23
3.5974e-07 4.8676e-23
3.6155e-07 5.3467e-23
3.6337e-07 5.2542e-23
3.6519e-07 5.9721e-23
3.6703e-07 5.5298e-23
3.6887e-07 5.5548e-23
3.7073e-07 5.5453e-23
3.7259e-07 6.1171e-23
3.7446e-07 5.5975e-23
3.7634e-07 6.4703e-23
3.7823e-07 5.5297e-23
3.8013e-07 6.4028e-23
3.8204e-07 5.96e-23
3.8396e-07 6.131e-23
3.8589e-07 6.1043e-23
3.8783e-07 6.2089e-23
3.8978e-07 6.3355e-23
3.9174e-07 6.5014e-23
3.9371e-07 5.8203e-23
3.9568e-07 6.3561e-23
3.9767e-07 6.3079e-23
3.9967e-07 6.5193e-23
4.0168e-07 6.3512e-23
4.037e-07 5.9445e-23
4.0573e-07 6.1174e-23
4.0776e-07 6.0116e-23
4.0981e-07 6.5243e-23
4.1187e-07 5.7826e-23
4.1394e-07 6.6178e-23
4.1602e-07 5.3123e-23
4.1811e-07 5.7942e-23
4.2021e-07 6.1933e-23
4.2232e-07 6.2241e-23
4.2445e-07 6.3702e-23
4.2658e-07 5.1099e-23
4.2872e-07 5.4949e-23
4.3088e-07 5.8458e-23
4.3304e-07 5.2524e-23
4.3522e-07 6.4792e-23
4.374e-07 4.6186e-23
4.396e-07 6.2155e-23
4.4181e-07 4.13e-23
4.4403e-07 5.3266e-23
4.4626e-07 4.8683e-23
4.485e-07 5.9598e-23
4.5076e-07 4.5688e-23
4.5302e-07 4.58e-23
4.553e-07 4.3914e-23
4.5759e-07 4.6599e-23
4.5989e-07 4.6052e-23
4.622e-07 4.4618e-23
4.6452e-07 4.3262e-23
4.6685e-07 4.033e-23
4.692e-07 3.4943e-23
4.7156e-07 3.4063e-23
4.7393e-07 4.6117e-23
4.7631e-07 3.6731e-23
4.787e-07 3.5579e-23
4.8111e-07 3.5866e-23
4.8352e-07 2.5864e-23
4.8595e-07 2.8134e-23
4.8839e-07 3.8151e-23
4.9085e-07 2.7977e-23
4.9331e-07 2.9551e-23
4.9579e-07 3.2912e-23
4.9828e-07 2.0569e-23
5.0079e-07 1.8373e-23
5.033e-07 2.6021e-23
5.0583e-07 2.5919e-23
5.0837e-07 2.3008e-23
5.1093e-07 2.5394e-23
5.135e-07 2.0027e-23
5.1608e-07 1.5056e-23
5.1867e-07 1.8474e-23
5.2127e-07 1.5862e-23
5.2389e-07 1.6982e-23
5.2653e-07 2.0952e-23
5.2917e-07 1.5941e-23
5.3183e-07 1.6204e-23
5.345e-07 1.1706e-23
5.3719e-07 9.5703e-24
5.3989e-07 1.0682e-23
5.426e-07 1.4408e-23
5.4533e-07 1.3655e-23
5.4807e-07 1.3387e-23
5.5082e-07 1.0338e-23
5.5359e-07 1.0433e-23
5.5637e-07 6.7301e-24
5.5917e-07 5.8856e-24
5.6198e-07 7.8086e-24
5.648e-07 1.0854e-23
5.6764e-07 7.4373e-24
5.7049e-07 9.5578e-24
5.7336e-07 7.0584e-24
5.7624e-07 3.7992e-24
5.7913e-07 5.5133e-24
5.8204e-07 3.8263e-24
5.8497e-07 5.5051e-24
5.8791e-07 4.6371e-24
5.9086e-07 6.5496e-24
5.9383e-07 5.4796e-24
5.9681e-07 3.2443e-24
5.9981e-07 4.5214e-24
6.0282e-07 2.9565e-24
6.0585e-07 1.8478e-24
6.089e-07 2.0134e-24
6.1196e-07 4.1831e-24
6.1503e-07 3.3034e-24
6.1812e-07 3.0684e-24
6.2123e-07 2.7607e-24
6.2435e-07 2.2671e-24
6.2749e-07 1.5588e-24
6.3064e-07 1.2319e-24
6.3381e-07 1.4079e-24
6.3699e-07 1.5215e-24
6.4019e-07 1.5695e-24
6.4341e-07 1.9423e-24
6.4664e-07 2.3576e-24
6.4989e-07 1.335e-24
6.5316e-07 1.0518e-24
6.5644e-07 8.7343e-25
6.5974e-07 6.6658e-25
6.6305e-07 4.14e-25
6.6638e-07 4.1289e-25
6.6973e-07 -0
6.731e-07 -0
6.7648e-07 -0
6.7988e-07 -0
6.8329e-07 -0
6.8673e-07 -0
6.9018e-07 -0
6.9365e-07 -0
6.9713e-07 -0
7.0063e-07 -0
7.0415e-07 -0
7.0769e-07 -0
7.1125e-07 -0
7.1482e-07 -0
7.1841e-07 -0
7.2202e-07 -0
7.2565e-07 -0
7.293e-07 -0
7.3296e-07 -0
7.3664e-07 -0
7.4035e-07 -0
7.4407e-07 -0
7.478e-07 -0
7.5156e-07 -0
7.5534e-07 -0
7.5913e-07 -0
7.6295e-07 -0
7.6678e-07 -0
7.7063e-07 -0
7.7451e-07 -0
7.784e-07 -0
7.8231e-07 -0
7.8624e-07 -0
7.9019e-07 -0
7.9416e-07 -0
7.9815e-07 -0
8.0216e-07 -0
8.0619e-07 -0
8.1024e-07 -0
8.1431e-07 -0
8.1841e-07 -0
8.2252e-07 -0
8.2665e-07 -0
8.308e-07 -0
8.3498e-07 -0
8.3917e-07 -0
8.4339e-07 -0
8.4763e-07 -0
8.5189e-07 -0
8.5617e-07 -0
8.6047e-07 -0
8.6479e-07 -0
8.6914e-07 -0
8.735e-07 -0
8.7789e-07 -0
8.823e-07 -0
8.8674e-07 -0
8.9119e-07 -0
8.9567e-07 -0
9.0017e-07 -0
9.0469e-07 -0
9.0924e-07 -0
9.1381e-07 -0
9.184e-07 -0
9.2301e-07 -0
9.2765e-07 -0
9.3231e-07 -0
9.37e-07 -0
9.4171e-07 -0
9.4644e-07 -0
9.5119e-07 -0
9.5597e-07 -0
9.6078e-07 -0
9.656e-07 -0
9.7046e-07 -0
9.7533e-07 -0
9.8023e-07 -0
9.8516e-07 -0
9.9011e-07 -0
9.9508e-07 -0
1.0001e-06 -0
1.0051e-06 -0
1.0102e-06 -0
1.0152e-06 -0
1.0203e-06 -0
1.0255e-06 -0
1.0306e-06 -0
1.0358e-06 -0
1.041e-06 -0
1.0462e-06 -0
1.0515e-06 -0
1.0568e-06 -0
1.0621e-06 -0
1.0674e-06 -0
1.0728e-06 -0
1.0782e-06 -0
1.0836e-06 -0
1.089e-06 -0
1.0945e-06 -0
1.1e-06 -0

File: no2_uv_vis_T1_P0.txt
2.8e-07 5.7356e-24
2.8141e-07 6.0473e-24
2.8282e-07 6.0253e-24
2.8424e-07 7.2291e-24
2.8567e-07 7.9229e-24
2.8711e-07 7.8625e-24
2.8855e-07 8.26e-24
2.9e-07 9.2432e-24
2.9145e-07 1.0472e-23
2.9292e-07 1.0509e-23
2.9439e-07 1.0887e-23
2.9587e-07 1.1198e-23
2.9736e-07 1.4207e-23
2.9885e-07 1.3451e-23
3.0035e-07 1.3474e-23
3.0186e-07 1.4825e-23
3.0338e-07 1.6718e-23
3.049e-07 1.7171e-23
3.0643e-07 1.736e-23
3.0797e-07 1.8031e-23
3.0952e-07 2.0266e-23
3.1108e-07 2.0873e-23
3.1264e-07 2.2387e-23
3.1421e-07 2.2291e-23
3.1579e-07 2.3373e-23
3.1738e-07 2.567e-23
3.1897e-07 2.5904e-23
3.2057e-07 2.7716e-23
3.2218e-07 2.8285e-23
3.238e-07 2.913e-23
3.2543e-07 3.1723e-23
3.2707e-07 3.2116e-23
3.2871e-07 3.2757e-23
3.3036e-07 3.4102e-23
3.3202e-07 3.5397e-23
3.3369e-07 3.7687e-23
3.3537e-07 3.7838e-23
3.3705e-07 3.8469e-23
3.3874e-07 4.2564e-23
3.4045e-07 4.3203e-23
3.4216e-07 4.2078e-23
3.4388e-07 4.2235e-23
3.456e-07 4.459e-23
3.4734e-07 4.7383e-23
3.4909e-07 4.8463e-23
3.5084e-07 4.6861e-23
3.526e-07 4.5288e-23
3.5437e-07 5.3235e-23
3.5615e-07 4.9393e-23
3.5794e-07 5.3873e-23
3.5974e-07 4.8427e-23
3.6155e-07 5.3074e-23
3.6337e-07 5.2064e-23
3.6519e-07 5.9279e-23
3.6703e-07 5.464e-23
3.6887e-07 5.5046e-23
3.7073e-07 5.4179e-23
3.7259e-07 6.0364e-23
3.7446e-07 5.5618e-23
3.7634e-07 6.5243e-23
3.7823e-07 5.4815e-23
3.8013e-07 6.3564e-23
3.8204e-07 5.9157e-23
3.8396e-07 6.0832e-23
3.8589e-07 6.0539e-23
3.8783e-07 6.1732e-23
3.8978e-07 6.3142e-23
3.9174e-07 6.4796e-23
3.9371e-07 5.7982e-23
3.9568e-07 6.3398e-23
3.9767e-07 6.3081e-23
3.9967e-07 6.5163e-23
4.0168e-07 6.3379e-23
4.037e-07 5.9246e-23
4.0573e-07 6.0946e-23
4.0776e-07 5.9889e-23
4.0981e-07 6.5008e-23
4.1187e-07 5.7601e-23
4.1394e-07 6.5973e-23
4.1602e-07 5.3057e-23
4.1811e-07 5.7823e-23
4.2021e-07 6.1763e-23
4.2232e-07 6.2054e-23
4.2445e-07 6.3531e-23
4.2658e-07 5.0959e-23
4.2872e-07 5.479e-23
4.3088e-07 5.8296e-23
4.3304e-07 5.2381e-23
4.3522e-07 6.4629e-23
4.374e-07 4.607e-23
4.396e-07 6.2069e-23
4.4181e-07 4.1321e-23
4.4403e-07 5.3316e-23
4.4626e-07 4.8707e-23
4.485e-07 5.954e-23
4.5076e-07 4.5614e-23
4.5302e-07 4.5723e-23
4.553e-07 4.3848e-23
4.5759e-07 4.6543e-23
4.5989e-07 4.6009e-23
4.622e-07 4.4575e-23
4.6452e-07 4.3207e-23
4.6685e-07 4.0293e-23
4.692e-07 3.4939e-23
4.7156e-07 3.4045e-23
4.7393e-07 4.6082e-23
4.7631e-07 3.6696e-23
4.787e-07 3.5554e-23
4.8111e-07 3.5845e-23
4.8352e-07 2.5846e-23
4.8595e-07 2.8122e-23
4.8839e-07 3.8134e-23
4.9085e-07 2.7957e-23
4.9331e-07 2.9527e-23
4.9579e-07 3.2889e-23
4.9828e-07 2.0554e-23
5.0079e-07 1.837e-23
5.033e-07 2.6068e-23
5.0583e-07 2.596e-23
5.0837e-07 2.3042e-23
5.1093e-07 2.5397e-23
5.135e-07 2.0014e-23
5.1608e-07 1.5046e-23
5.1867e-07 1.8463e-23
5.2127e-07 1.5853e-23
5.2389e-07 1.6973e-23
5.2653e-07 2.0942e-23
5.2917e-07 1.5932e-23
5.3183e-07 1.6195e-23
5.345e-07 1.17e-23
5.3719e-07 9.5647e-24
5.3989e-07 1.0681e-23
5.426e-07 1.4415e-23
5.4533e-07 1.366e-23
5.4807e-07 1.3386e-23
5.5082e-07 1.0334e-23
5.5359e-07 1.0428e-23
5.5637e-07 6.7278e-24
5.5917e-07 5.8834e-24
5.6198e-07 7.8052e-24
5.648e-07 1.0849e-23
5.6764e-07 7.4373e-24
5.7049e-07 9.5622e-24
5.7336e-07 7.0612e-24
5.7624e-07 3.7996e-24
5.7913e-07 5.5117e-24
5.8204e-07 3.8247e-24
5.8497e-07 5.504e-24
5.8791e-07 4.6476e-24
5.9086e-07 6.5706e-24
5.9383e-07 5.4996e-24
5.9681e-07 3.2517e-24
5.9981e-07 4.5268e-24
6.0282e-07 2.9558e-24
6.0585e-07 1.847e-24
6.089e-07 2.0127e-24
6.1196e-07 4.1812e-24
6.1503e-07 3.3014e-24
6.1812e-07 3.0662e-24
6.2123e-07 2.7584e-24
6.2435e-07 2.265e-24
6.2749e-07 1.56e-24
6.3064e-07 1.2312e-24
6.3381e-07 1.407e-24
6.3699e-07 1.5202e-24
6.4019e-07 1.568e-24
6.4341e-07 1.9408e-24
6.4664e-07 2.36e-24
6.4989e-07 1.3373e-24
6.5316e-07 1.0525e-24
6.5644e-07 8.7446e-25
6.5974e-07 6.6635e-25
6.6305e-07 4.133e-25
6.6638e-07 4.1207e-25
6.6973e-07 -0
6.731e-07 -0
6.7648e-07 -0
6.7988e-07 -0
6.8329e-07 -0
6.8673e-07 -0
6.9018e-07 -0
6.9365e-07 -0
6.9713e-07 -0
7.0063e-07 -0
7.0415e-07 -0
7.0769e-07 -0
7.1125e-07 -0
7.1482e-07 -0
7.1841e-07 -0
7.2202e-07 -0
7.2565e-07 -0
7.293e-07 -0
7.3296e-07 -0
7.3664e-07 -0
7.4035e-07 -0
7.4407e-07 -0
7.478e-07 -0
7.5156e-07 -0
7.5534e-07 -0
7.5913e-07 -0
7.6295e-07 -0
7.6678e-07 -0
7.7063e-07 -0
7.7451e-07 -0
7.784e-07 -0
7.8231e-07 -0
7.8624e-07 -0
7.9019e-07 -0
7.9416e-07 -0
7.9815e-07 -0
8.0216e-07 -0
8.0619e-07 -0
8.1024e-07 -0
8.1431e-07 -0
8.1841e-07 -0
8.2252e-07 -0
8.2665e-07 -0
8.308e-07 -0
8.3498e-07 -0
8.3917e-07 -0
8.4339e-07 -0
8.4763e-07 -0
8.5189e-07 -0
8.5617e-07 -0
8.6047e-07 -0
8.6479e-07 -0
8.6914e-07 -0
8.735e-07 -0
8.7789e-07 -0
8.823e-07 -0
8.8674e-07 -0
8.9119e-07 -0
8.9567e-07 -0
9.0017e-07 -0
9.0469e-07 -0
9.0924e-07 -0
9.1381e-07 -0
9.184e-07 -0
9.2301e-07 -0
9.2765e-07 -0
9.3231e-07 -0
9.37e-07 -0
9.4171e-07 -0
9.4644e-07 -0
9.5119e-07 -0
9.5597e-07 -0
9.6078e-07 -0
9.656e-07 -0
9.7046e-07 -0
9.7533e-07 -0
9.8023e-07 -0
9.8516e-07 -0
9.9011e-07 -0
9.9508e-07 -0
1.0001e-06 -0
1.0051e-06 -0
1.0102e-06 -0
1.0152e-06 -0
1.0203e-06 -0
1.0255e-06 -0
1.0306e-06 -0
1.0358e-06 -0
1.041e-06 -0
1.0462e-06 -0
1.0515e-06 -0
1.0568e-06 -0
1.0621e-06 -0
1.0674e-06 -0
1.0728e-06 -0
1.0782e-06 -0
1.0836e-06 -0
1.089e-06 -0
1.0945e-06 -0
1.1e-06 -0

File: no2_uv_vis_toa_T0_P0.txt
2.8e-07 5.6433e-24
2.814e-07 6.2e-24
2.8282e-07 5.9098e-24
2.8423e-07 7.1417e-24
2.8566e-07 7.9183e-24
2.8709e-07 7.7962e-24
2.8853e-07 8.1947e-24
2.8998e-07 9.2886e-24
2.9143e-07 1.0467e-23
2.929e-07 1.0581e-23
2.9437e-07 1.0822e-23
2.9584e-07 1.0827e-23
2.9733e-07 1.4607e-23
2.9882e-07 1.3304e-23
3.0032e-07 1.3369e-23
3.0182e-07 1.4758e-23
3.0334e-07 1.6883e-23
3.0486e-07 1.7317e-23
3.0639e-07 1.714e-23
3.0792e-07 1.787e-23
3.0947e-07 2.0608e-23
3.1102e-07 2.0873e-23
3.1258e-07 2.2723e-23
3.1415e-07 2.1822e-23
3.1572e-07 2.3377e-23
3.1731e-07 2.5646e-23
3.189e-07 2.5681e-23
3.205e-07 2.8157e-23
3.2211e-07 2.813e-23
3.2372e-07 2.9196e-23
3.2535e-07 3.2194e-23
3.2698e-07 3.1847e-23
3.2862e-07 3.2322e-23
3.3027e-07 3.4197e-23
3.3192e-07 3.4574e-23
3.3359e-07 3.842e-23
3.3526e-07 3.8725e-23
3.3694e-07 3.9218e-23
3.3863e-07 4.3423e-23
3.4033e-07 4.2658e-23
3.4204e-07 4.3047e-23
3.4375e-07 4.2564e-23
3.4548e-07 4.4158e-23
3.4721e-07 4.7092e-23
3.4895e-07 5.0673e-23
3.507e-07 4.717e-23
3.5246e-07 4.6773e-23
3.5423e-07 5.4554e-23
3.5601e-07 4.7705e-23
3.5779e-07 5.5494e-23
3.5959e-07 4.8025e-23
3.6139e-07 5.405e-23
3.632e-07 5.3021e-23
3.6502e-07 6.0195e-23
3.6686e-07 5.3655e-23
3.687e-07 5.5046e-23
3.7054e-07 5.5242e-23
3.724e-07 6.2992e-23
3.7427e-07 5.5889e-23
3.7615e-07 6.6117e-23
3.7804e-07 5.4787e-23
3.7993e-07 6.539e-23
3.8184e-07 6.0616e-23
3.8375e-07 6.0607e-23
3.8568e-07 6.2391e-23
3.8761e-07 6.2754e-23
3.8956e-07 6.3648e-23
3.9151e-07 6.5006e-23
3.9347e-07 5.78e-23
3.9545e-07 6.4914e-23
3.9743e-07 6.0194e-23
3.9942e-07 6.1475e-23
4.0143e-07 6.5763e-23
4.0344e-07 5.7456e-23
4.0546e-07 6.4576e-23
4.075e-07 5.4744e-23
4.0954e-07 6.407e-23
4.116e-07 5.6185e-23
4.1366e-07 7.2287e-23
4.1574e-07 5.2534e-23
4.1782e-07 5.7431e-23
4.1992e-07 6.2221e-23
4.2202e-07 6.3492e-23
4.2414e-07 6.5658e-23
4.2627e-07 4.7376e-23
4.2841e-07 5.9448e-23
4.3055e-07 5.9566e-23
4.3271e-07 4.8203e-23
4.3488e-07 6.7504e-23
4.3707e-07 4.7653e-23
4.3926e-07 6.8709e-23
4.4146e-07 4.0828e-23
4.4368e-07 4.7763e-23
4.459e-07 5.0719e-23
4.4814e-07 6.9061e-23
4.5038e-07 4.6098e-23
4.5264e-07 4.7628e-23
4.5491e-07 4.5715e-23
4.572e-07 4.3068e-23
4.5949e-07 4.3379e-23
4.6179e-07 4.0132e-23
4.6411e-07 4.6779e-23
4.6644e-07 3.7592e-23
4.6878e-07 3.5753e-23
4.7113e-07 3.2885e-23
4.7349e-07 4.3884e-23
4.7587e-07 3.8479e-23
4.7825e-07 3.2895e-23
4.8065e-07 3.6244e-23
4.8306e-07 2.5457e-23
4.8549e-07 2.8632e-23
4.8792e-07 3.3143e-23
4.9037e-07 3.0833e-23
4.9283e-07 2.6856e-23
4.953e-07 3.2849e-23
4.9779e-07 2.2474e-23
5.0028e-07 1.6795e-23
5.0279e-07 2.7396e-23
5.0531e-07 2.8923e-23
5.0785e-07 2.0586e-23
5.104e-07 2.6123e-23
5.1296e-07 2.2067e-23
5.1553e-07 1.5699e-23
5.1811e-07 1.7472e-23
5.2071e-07 1.6854e-23
5.2332e-07 1.5224e-23
5.2595e-07 2.2589e-23
5.2859e-07 1.661e-23
5.3124e-07 1.585e-23
5.339e-07 1.3259e-23
5.3658e-07 9.0605e-24
5.3927e-07 1.2535e-23
5.4198e-07 1.3857e-23
5.447e-07 1.4105e-23
5.4743e-07 1.3326e-23
5.5017e-07 1.111e-23
5.5293e-07 1.1436e-23
5.5571e-07 6.7311e-24
5.5849e-07 6.4226e-24
5.613e-07 7.0351e-24
5.6411e-07 1.2119e-23
5.6694e-07 6.2702e-24
5.6978e-07 8.2248e-24
5.7264e-07 8.4099e-24
5.7551e-07 4.3069e-24
5.784e-07 5.0049e-24
5.813e-07 4.0261e-24
5.8422e-07 4.669e-24
5.8715e-07 5.0282e-24
5.9009e-07 6.1439e-24
5.9305e-07 7.3284e-24
5.9603e-07 3.0577e-24
5.9902e-07 4.0972e-24
6.0202e-07 3.9826e-24
6.0504e-07 1.8354e-24
6.0808e-07 2.0691e-24
6.1113e-07 3.1496e-24
6.1419e-07 3.3868e-24
6.1727e-07 3.8418e-24
6.2037e-07 3.2603e-24
6.2348e-07 2.3723e-24
6.2661e-07 1.775e-24
6.2975e-07 1.1595e-24
6.3291e-07 1.302e-24
6.3608e-07 1.4999e-24
6.3927e-07 1.4426e-24
6.4248e-07 2.1923e-24
6.457e-07 1.9198e-24
6.4894e-07 1.2896e-24
6.522e-07 1.1965e-24
6.5547e-07 1.0071e-24
6.5876e-07 7.1554e-25
6.6206e-07 4.1923e-25
6.6538e-07 6.2773e-25
6.6872e-07 -0
6.7207e-07 -0
6.7544e-07 -0
6.7883e-07 -0
6.8224e-07 -0
6.8566e-07 -0
6.891e-07 -0
6.9255e-07 -0
6.9603e-07 -0
6.9952e-07 -0
7.0303e-07 -0
7.0655e-07 -0
7.101e-07 -0
7.1366e-07 -0
7.1724e-07 -0
7.2084e-07 -0
7.2445e-07 -0
7.2809e-07 -0
7.3174e-07 -0
7.3541e-07 -0
7.391e-07 -0
7.428e-07 -0
7.4653e-07 -0
7.5027e-07 -0
7.5404e-07 -0
7.5782e-07 -0
7.6162e-07 -0
7.6544e-07 -0
7.6928e-07 -0
7.7314e-07 -0
7.7702e-07 -0
7.8091e-07 -0
7.8483e-07 -0
7.8877e-07 -0
7.9272e-07 -0
7.967e-07 -0
8.007e-07 -0
8.0471e-07 -0
8.0875e-07 -0
8.1281e-07 -0
8.1688e-07 -0
8.2098e-07 -0
8.251e-07 -0
8.2924e-07 -0
8.334e-07 -0
8.3758e-07 -0
8.4178e-07 -0
8.46e-07 -0
8.5024e-07 -0
8.5451e-07 -0
8.5879e-07 -0
8.631e-07 -0
8.6743e-07 -0
8.7178e-07 -0
8.7615e-07 -0
8.8055e-07 -0
8.8496e-07 -0
8.894e-07 -0
8.9386e-07 -0
8.9835e-07 -0
9.0285e-07 -0
9.0738e-07 -0
9.1193e-07 -0
9.1651e-07 -0
9.211e-07 -0
9.2572e-07 -0
9.3037e-07 -0
9.3503e-07 -0
9.3972e-07 -0
9.4444e-07 -0
9.4918e-07 -0
9.5394e-07 -0
9.5872e-07 -0
9.6353e-07 -0
9.6836e-07 -0
9.7322e-07 -0
9.781e-07 -0
9.8301e-07 -0
9.8794e-07 -0
9.9289e-07 -0
9.9787e-07 -0
1.0029e-06 -0
1.0079e-06 -0
1.013e-06 -0
1.018e-06 -0
1.0232e-06 -0
1.0283e-06 -0
1.03e-06 -0

File: no2_uv_vis_toa_T0_P1.txt
2.8e-07 5.6466e-24
2.814e-07 6.2026e-24
2.8282e-07 5.904e-24
2.8423e-07 7.1385e-24
2.8566e-07 7.9135e-24
2.8709e-07 7.7961e-24
2.8853e-07 8.1859e-24
2.8998e-07 9.284e-24
2.9143e-07 1.0458e-23
2.929e-07 1.0596e-23
2.9437e-07 1.0807e-23
2.9584e-07 1.0816e-23
2.9733e-07 1.4596e-23
2.9882e-07 1.3301e-23
3.0032e-07 1.3371e-23
3.0182e-07 1.4753e-23
3.0334e-07 1.6882e-23
3.0486e-07 1.7314e-23
3.0639e-07 1.7136e-23
3.0792e-07 1.7871e-23
3.0947e-07 2.0609e-23
3.1102e-07 2.0873e-23
3.1258e-07 2.2723e-23
3.1415e-07 2.1819e-23
3.1572e-07 2.3378e-23
3.1731e-07 2.5647e-23
3.189e-07 2.5682e-23
3.205e-07 2.8159e-23
3.2211e-07 2.8132e-23
3.2372e-07 2.9196e-23
3.2535e-07 3.2192e-23
3.2698e-07 3.1847e-23
3.2862e-07 3.2322e-23
3.3027e-07 3.4195e-23
3.3192e-07 3.4574e-23
3.3359e-07 3.8417e-23
3.3526e-07 3.8725e-23
3.3694e-07 3.9217e-23
3.3863e-07 4.3422e-23
3.4033e-07 4.2658e-23
3.4204e-07 4.3047e-23
3.4375e-07 4.2564e-23
3.4548e-07 4.4158e-23
3.4721e-07 4.7092e-23
3.4895e-07 5.0673e-23
3.507e-07 4.717e-23
3.5246e-07 4.6773e-23
3.5423e-07 5.4554e-23
3.5601e-07 4.7705e-23
3.5779e-07 5.5494e-23
3.5959e-07 4.8025e-23
3.6139e-07 5.405e-23
3.632e-07 5.3021e-23
3.6502e-07 6.0195e-23
3.6686e-07 5.3655e-23
3.687e-07 5.5046e-23
3.7054e-07 5.5242e-23
3.724e-07 6.2992e-23
3.7427e-07 5.5889e-23
3.7615e-07 6.6117e-23
3.7804e-07 5.4787e-23
3.7993e-07 6.539e-23
3.8184e-07 6.0616e-23
3.8375e-07 6.0607e-23
3.8568e-07 6.2391e-23
3.8761e-07 6.2754e-23
3.8956e-07 6.3648e-23
3.9151e-07 6.5004e-23
3.9347e-07 5.7799e-23
3.9545e-07 6.4912e-23
3.9743e-07 6.0183e-23
3.9942e-07 6.1463e-23
4.0143e-07 6.5759e-23
4.0344e-07 5.7455e-23
4.0546e-07 6.4576e-23
4.075e-07 5.4744e-23
4.0954e-07 6.407e-23
4.116e-07 5.6185e-23
4.1366e-07 7.2287e-23
4.1574e-07 5.2531e-23
4.1782e-07 5.7429e-23
4.1992e-07 6.222e-23
4.2202e-07 6.3493e-23
4.2414e-07 6.5658e-23
4.2627e-07 4.7376e-23
4.2841e-07 5.9448e-23
4.3055e-07 5.9566e-23
4.3271e-07 4.8204e-23
4.3488e-07 6.7504e-23
4.3707e-07 4.7653e-23
4.3926e-07 6.871e-23
4.4146e-07 4.0825e-23
4.4368e-07 4.7756e-23
4.459e-07 5.071e-23
4.4814e-07 6.906e-23
4.5038e-07 4.6099e-23
4.5264e-07 4.7628e-23
4.5491e-07 4.5716e-23
4.572e-07 4.3069e-23
4.5949e-07 4.3379e-23
4.6179e-07 4.0132e-23
4.6411e-07 4.6779e-23
4.6644e-07 3.7594e-23
4.6878e-07 3.5754e-23
4.7113e-07 3.2885e-23
4.7349e-07 4.3886e-23
4.7587e-07 3.848e-23
4.7825e-07 3.2895e-23
4.8065e-07 3.6244e-23
4.8306e-07 2.5457e-23
4.8549e-07 2.8633e-23
4.8792e-07 3.3144e-23
4.9037e-07 3.0834e-23
4.9283e-07 2.6857e-23
4.953e-07 3.2849e-23
4.9779e-07 2.2474e-23
5.0028e-07 1.6796e-23
5.0279e-07 2.7394e-23
5.0531e-07 2.892e-23
5.0785e-07 2.0583e-23
5.104e-07 2.6123e-23
5.1296e-07 2.2068e-23
5.1553e-07 1.5699e-23
5.1811e-07 1.7473e-23
5.2071e-07 1.6854e-23
5.2332e-07 1.5224e-23
5.2595e-07 2.259e-23
5.2859e-07 1.6611e-23
5.3124e-07 1.5851e-23
5.339e-07 1.3259e-23
5.3658e-07 9.0607e-24
5.3927e-07 1.2536e-23
5.4198e-07 1.3857e-23
5.447e-07 1.4106e-23
5.4743e-07 1.3326e-23
5.5017e-07 1.1111e-23
5.5293e-07 1.1436e-23
5.5571e-07 6.7311e-24
5.5849e-07 6.4226e-24
5.613e-07 7.0353e-24
5.6411e-07 1.2119e-23
5.6694e-07 6.2706e-24
5.6978e-07 8.2249e-24
5.7264e-07 8.4105e-24
5.7551e-07 4.307e-24
5.784e-07 5.0052e-24
5.813e-07 4.0263e-24
5.8422e-07 4.6692e-24
5.8715e-07 5.0278e-24
5.9009e-07 6.1428e-24
5.9305e-07 7.3267e-24
5.9603e-07 3.057e-24
5.9902e-07 4.0968e-24
6.0202e-07 3.9827e-24
6.0504e-07 1.8355e-24
6.0808e-07 2.0691e-24
6.1113e-07 3.1495e-24
6.1419e-07 3.3868e-24
6.1727e-07 3.8419e-24
6.2037e-07 3.2603e-24
6.2348e-07 2.3724e-24
6.2661e-07 1.7751e-24
6.2975e-07 1.1595e-24
6.3291e-07 1.302e-24
6.3608e-07 1.5e-24
6.3927e-07 1.4427e-24
6.4248e-07 2.1924e-24
6.457e-07 1.92e-24
6.4894e-07 1.2891e-24
6.522e-07 1.1964e-24
6.5547e-07 1.0067e-24
6.5876e-07 7.1541e-25
6.6206e-07 4.1924e-25
6.6538e-07 6.2776e-25
6.6872e-07 -0
6.7207e-07 -0
6.7544e-07 -0
6.7883e-07 -0
6.8224e-07 -0
6.8566e-07 -0
6.891e-07 -0
6.9255e-07 -0
6.9603e-07 -0
6.9952e-07 -0
7.0303e-07 -0
7.0655e-07 -0
7.101e-07 -0
7.1366e-07 -0
7.1724e-07 -0
7.2084e-07 -0
7.2445e-07 -0
7.2809e-07 -0
7.3174e-07 -0
7.3541e-07 -0
7.391e-07 -0
7.428e-07 -0
7.4653e-07 -0
7.5027e-07 -0
7.5404e-07 -0
7.5782e-07 -0
7.6162e-07 -0
7.6544e-07 -0
7.6928e-07 -0
7.7314e-07 -0
7.7702e-07 -0
7.8091e-07 -0
7.8483e-07 -0
7.8877e-07 -0
7.9272e-07 -0
7.967e-07 -0
8.007e-07 -0
8.0471e-07 -0
8.0875e-07 -0
8.1281e-07 -0
8.1688e-07 -0
8.2098e-07 -0
8.251e-07 -0
8.2924e-07 -0
8.334e-07 -0
8.3758e-07 -0
8.4178e-07 -0
8.46e-07 -0
8.5024e-07 -0
8.5451e-07 -0
8.5879e-07 -0
8.631e-07 -0
8.6743e-07 -0
8.7178e-07 -0
8.7615e-07 -0
8.8055e-07 -0
8.8496e-07 -0
8.894e-07 -0
8.9386e-07 -0
8.9835e-07 -0
9.0285e-07 -0
9.0738e-07 -0
9.1193e-07 -0
9.1651e-07 -0
9.211e-07 -0
9.2572e-07 -0
9.3037e-07 -0
9.3503e-07 -0
9.3972e-07 -0
9.4444e-07 -0
9.4918e-07 -0
9.5394e-07 -0
9.5872e-07 -0
9.6353e-07 -0
9.6836e-07 -0
9.7322e-07 -0
9.781e-07 -0
9.8301e-07 -0
9.8794e-07 -0
9.9289e-07 -0
9.9787e-07 -0
1.0029e-06 -0
1.0079e-06 -0
1.013e-06 -0
1.018e-06 -0
1.0232e-06 -0
1.0283e-06 -0
1.03e-06 -0

File: no2_uv_vis_toa_T1_P0.txt
2.8e-07 5.6421e-24
2.814e-07 6.2003e-24
2.8282e-07 5.9025e-24
2.8423e-07 7.1385e-24
2.8566e-07 7.9117e-24
2.8709e-07 7.7971e-24
2.8853e-07 8.1918e-24
2.8998e-07 9.2866e-24
2.9143e-07 1.0467e-23
2.929e-07 1.0578e-23
2.9437e-07 1.0816e-23
2.9584e-07 1.0824e-23
2.9733e-07 1.4605e-23
2.9882e-07 1.3303e-23
3.0032e-07 1.3368e-23
3.0182e-07 1.475e-23
3.0334e-07 1.6879e-23
3.0486e-07 1.7313e-23
3.0639e-07 1.7135e-23
3.0792e-07 1.7868e-23
3.0947e-07 2.0602e-23
3.1102e-07 2.0866e-23
3.1258e-07 2.2715e-23
3.1415e-07 2.1832e-23
3.1572e-07 2.3367e-23
3.1731e-07 2.563e-23
3.189e-07 2.5665e-23
3.205e-07 2.814e-23
3.2211e-07 2.8111e-23
3.2372e-07 2.9168e-23
3.2535e-07 3.2175e-23
3.2698e-07 3.1808e-23
3.2862e-07 3.2291e-23
3.3027e-07 3.4154e-23
3.3192e-07 3.4525e-23
3.3359e-07 3.837e-23
3.3526e-07 3.8608e-23
3.3694e-07 3.9151e-23
3.3863e-07 4.3263e-23
3.4033e-07 4.2575e-23
3.4204e-07 4.2761e-23
3.4375e-07 4.2438e-23
3.4548e-07 4.3902e-23
3.4721e-07 4.6892e-23
3.4895e-07 5.0215e-23
3.507e-07 4.6766e-23
3.5246e-07 4.6499e-23
3.5423e-07 5.4127e-23
3.5601e-07 4.7361e-23
3.5779e-07 5.5051e-23
3.5959e-07 4.7819e-23
3.6139e-07 5.3675e-23
3.632e-07 5.2531e-23
3.6502e-07 5.9776e-23
3.6686e-07 5.3029e-23
3.687e-07 5.4594e-23
3.7054e-07 5.3891e-23
3.724e-07 6.2169e-23
3.7427e-07 5.5306e-23
3.7615e-07 6.6529e-23
3.7804e-07 5.4286e-23
3.7993e-07 6.4925e-23
3.8184e-07 6.017e-23
3.8375e-07 6.0135e-23
3.8568e-07 6.188e-23
3.8761e-07 6.2391e-23
3.8956e-07 6.3437e-23
3.9151e-07 6.4784e-23
3.9347e-07 5.7584e-23
3.9545e-07 6.4723e-23
3.9743e-07 6.0223e-23
3.9942e-07 6.1428e-23
4.0143e-07 6.5637e-23
4.0344e-07 5.7258e-23
4.0546e-07 6.4348e-23
4.075e-07 5.4522e-23
4.0954e-07 6.3837e-23
4.116e-07 5.5958e-23
4.1366e-07 7.2065e-23
4.1574e-07 5.2443e-23
4.1782e-07 5.731e-23
4.1992e-07 6.2057e-23
4.2202e-07 6.3301e-23
4.2414e-07 6.5478e-23
4.2627e-07 4.7257e-23
4.2841e-07 5.9279e-23
4.3055e-07 5.94e-23
4.3271e-07 4.8068e-23
4.3488e-07 6.7336e-23
4.3707e-07 4.7528e-23
4.3926e-07 6.8609e-23
4.4146e-07 4.0833e-23
4.4368e-07 4.7789e-23
4.459e-07 5.0754e-23
4.4814e-07 6.9001e-23
4.5038e-07 4.6025e-23
4.5264e-07 4.7549e-23
4.5491e-07 4.5646e-23
4.572e-07 4.3015e-23
4.5949e-07 4.3336e-23
4.6179e-07 4.0095e-23
4.6411e-07 4.6722e-23
4.6644e-07 3.7548e-23
4.6878e-07 3.5743e-23
4.7113e-07 3.2875e-23
4.7349e-07 4.3857e-23
4.7587e-07 3.8443e-23
4.7825e-07 3.287e-23
4.8065e-07 3.6224e-23
4.8306e-07 2.5439e-23
4.8549e-07 2.8629e-23
4.8792e-07 3.3129e-23
4.9037e-07 3.0813e-23
4.9283e-07 2.6834e-23
4.953e-07 3.2825e-23
4.9779e-07 2.2457e-23
5.0028e-07 1.6789e-23
5.0279e-07 2.7422e-23
5.0531e-07 2.8961e-23
5.0785e-07 2.0616e-23
5.104e-07 2.6132e-23
5.1296e-07 2.2054e-23
5.1553e-07 1.5688e-23
5.1811e-07 1.7462e-23
5.2071e-07 1.6846e-23
5.2332e-07 1.5216e-23
5.2595e-07 2.2577e-23
5.2859e-07 1.6602e-23
5.3124e-07 1.5842e-23
5.339e-07 1.3253e-23
5.3658e-07 9.0556e-24
5.3927e-07 1.2531e-23
5.4198e-07 1.3866e-23
5.447e-07 1.4107e-23
5.4743e-07 1.3326e-23
5.5017e-07 1.1106e-23
5.5293e-07 1.1431e-23
5.5571e-07 6.7286e-24
5.5849e-07 6.4202e-24
5.613e-07 7.0324e-24
5.6411e-07 1.2114e-23
5.6694e-07 6.268e-24
5.6978e-07 8.2326e-24
5.7264e-07 8.4129e-24
5.7551e-07 4.3083e-24
5.784e-07 5.004e-24
5.813e-07 4.0245e-24
5.8422e-07 4.6676e-24
5.8715e-07 5.0342e-24
5.9009e-07 6.1634e-24
5.9305e-07 7.3463e-24
5.9603e-07 3.0648e-24
5.9902e-07 4.1039e-24
6.0202e-07 3.9829e-24
6.0504e-07 1.8347e-24
6.0808e-07 2.0683e-24
6.1113e-07 3.1483e-24
6.1419e-07 3.385e-24
6.1727e-07 3.8393e-24
6.2037e-07 3.2577e-24
6.2348e-07 2.3702e-24
6.2661e-07 1.774e-24
6.2975e-07 1.1589e-24
6.3291e-07 1.3014e-24
6.3608e-07 1.4988e-24
6.3927e-07 1.4414e-24
6.4248e-07 2.1902e-24
6.457e-07 1.9195e-24
6.4894e-07 1.2921e-24
6.522e-07 1.1971e-24
6.5547e-07 1.0085e-24
6.5876e-07 7.1554e-25
6.6206e-07 4.1859e-25
6.6538e-07 6.2659e-25
6.6872e-07 -0
6.7207e-07 -0
6.7544e-07 -0
6.7883e-07 -0
6.8224e-07 -0
6.8566e-07 -0
6.891e-07 -0
6.9255e-07 -0
6.9603e-07 -0
6.9952e-07 -0
7.0303e-07 -0
7.0655e-07 -0
7.101e-07 -0
7.1366e-07 -0
7.1724e-07 -0
7.2084e-07 -0
7.2445e-07 -0
7.2809e-07 -0
7.3174e-07 -0
7.3541e-07 -0
7.391e-07 -0
7.428e-07 -0
7.4653e-07 -0
7.5027e-07 -0
7.5404e-07 -0
7.5782e-07 -0
7.6162e-07 -0
7.6544e-07 -0
7.6928e-07 -0
7.7314e-07 -0
7.7702e-07 -0
7.8091e-07 -0
7.8483e-07 -0
7.8877e-07 -0
7.9272e-07 -0
7.967e-07 -0
8.007e-07 -0
8.0471e-07 -0
8.0875e-07 -0
8.1281e-07 -0
8.1688e-07 -0
8.2098e-07 -0
8.251e-07 -0
8.2924e-07 -0
8.334e-07 -0
8.3758e-07 -0
8.4178e-07 -0
8.46e-07 -0
8.5024e-07 -0
8.5451e-07 -0
8.5879e-07 -0
8.631e-07 -0
8.6743e-07 -0
8.7178e-07 -0
8.7615e-07 -0
8.8055e-07 -0
8.8496e-07 -0
8.894e-07 -0
8.9386e-07 -0
8.9835e-07 -0
9.0285e-07 -0
9.0738e-07 -0
9.1193e-07 -0
9.1651e-07 -0
9.211e-07 -0
9.2572e-07 -0
9.3037e-07 -0
9.3503e-07 -0
9.3972e-07 -0
9.4444e-07 -0
9.4918e-07 -0
9.5394e-07 -0
9.5872e-07 -0
9.6353e-07 -0
9.6836e-07 -0
9.7322e-07 -0
9.781e-07 -0
9.8301e-07 -0
9.8794e-07 -0
9.9289e-07 -0
9.9787e-07 -0
1.0029e-06 -0
1.0079e-06 -0
1.013e-06 -0
1.018e-06 -0
1.0232e-06 -0
1.0283e-06 -0
1.03e-06 -0