Folder: Flick-RT/material/gas/smooth_input (part 2)

File: co2_uv_vis_toa_T0_P0.txt
2.8e-07 -0
2.814e-07 -0
2.8282e-07 -0
2.8423e-07 -0
2.8566e-07 -0
2.8709e-07 -0
2.8853e-07 -0
2.8998e-07 -0
2.9143e-07 -0
2.929e-07 -0
2.9437e-07 -0
2.9584e-07 -0
2.9733e-07 -0
2.9882e-07 -0
3.0032e-07 -0
3.0182e-07 -0
3.0334e-07 -0
3.0486e-07 -0
3.0639e-07 -0
3.0792e-07 -0
3.0947e-07 -0
3.1102e-07 -0
3.1258e-07 -0
3.1415e-07 -0
3.1572e-07 -0
3.1731e-07 -0
3.189e-07 -0
3.205e-07 -0
3.2211e-07 -0
3.2372e-07 -0
3.2535e-07 -0
3.2698e-07 -0
3.2862e-07 -0
3.3027e-07 -0
3.3192e-07 -0
3.3359e-07 -0
3.3526e-07 -0
3.3694e-07 -0
3.3863e-07 -0
3.4033e-07 -0
3.4204e-07 -0
3.4375e-07 -0
3.4548e-07 -0
3.4721e-07 -0
3.4895e-07 -0
3.507e-07 -0
3.5246e-07 -0
3.5423e-07 -0
3.5601e-07 -0
3.5779e-07 -0
3.5959e-07 -0
3.6139e-07 -0
3.632e-07 -0
3.6502e-07 -0
3.6686e-07 -0
3.687e-07 -0
3.7054e-07 -0
3.724e-07 -0
3.7427e-07 -0
3.7615e-07 -0
3.7804e-07 -0
3.7993e-07 -0
3.8184e-07 -0
3.8375e-07 -0
3.8568e-07 -0
3.8761e-07 -0
3.8956e-07 -0
3.9151e-07 -0
3.9347e-07 -0
3.9545e-07 -0
3.9743e-07 -0
3.9942e-07 -0
4.0143e-07 -0
4.0344e-07 -0
4.0546e-07 -0
4.075e-07 -0
4.0954e-07 -0
4.116e-07 -0
4.1366e-07 -0
4.1574e-07 -0
4.1782e-07 -0
4.1992e-07 -0
4.2202e-07 -0
4.2414e-07 -0
4.2627e-07 -0
4.2841e-07 -0
4.3055e-07 -0
4.3271e-07 -0
4.3488e-07 -0
4.3707e-07 -0
4.3926e-07 -0
4.4146e-07 -0
4.4368e-07 -0
4.459e-07 -0
4.4814e-07 -0
4.5038e-07 -0
4.5264e-07 -0
4.5491e-07 -0
4.572e-07 -0
4.5949e-07 -0
4.6179e-07 -0
4.6411e-07 -0
4.6644e-07 -0
4.6878e-07 -0
4.7113e-07 -0
4.7349e-07 -0
4.7587e-07 -0
4.7825e-07 -0
4.8065e-07 -0
4.8306e-07 -0
4.8549e-07 -0
4.8792e-07 -0
4.9037e-07 -0
4.9283e-07 -0
4.953e-07 -0
4.9779e-07 1.9764e-39
5.0028e-07 1.2886e-38
5.0279e-07 2.207e-34
5.0531e-07 1.1209e-38
5.0785e-07 1.5448e-39
5.104e-07 -3.748e-42
5.1296e-07 5.9731e-39
5.1553e-07 1.5774e-36
5.1811e-07 1.4926e-37
5.2071e-07 1.8809e-38
5.2332e-07 1.384e-34
5.2595e-07 8.1001e-39
5.2859e-07 3.5594e-39
5.3124e-07 1.2422e-38
5.339e-07 1.4489e-34
5.3658e-07 1.1371e-38
5.3927e-07 1.7617e-38
5.4198e-07 2.4458e-34
5.447e-07 1.1729e-35
5.4743e-07 6.9866e-35
5.5017e-07 3.0357e-34
5.5293e-07 2.3895e-38
5.5571e-07 2.643e-38
5.5849e-07 3.5804e-35
5.613e-07 1.6329e-38
5.6411e-07 1.0176e-34
5.6694e-07 2.191e-36
5.6978e-07 5.7719e-39
5.7264e-07 3.2377e-39
5.7551e-07 1.4155e-38
5.784e-07 1.9996e-34
5.813e-07 2.5389e-37
5.8422e-07 1.9717e-34
5.8715e-07 1.6437e-34
5.9009e-07 9.2231e-38
5.9305e-07 2.2439e-38
5.9603e-07 1.7637e-35
5.9902e-07 4.0149e-35
6.0202e-07 9.4477e-38
6.0504e-07 7.8095e-34
6.0808e-07 9.4538e-37
6.1113e-07 2.6048e-34
6.1419e-07 1.2581e-34
6.1727e-07 8.7833e-38
6.2037e-07 1.5637e-34
6.2348e-07 8.6733e-38
6.2661e-07 9.2533e-37
6.2975e-07 4.1754e-34
6.3291e-07 9.3753e-35
6.3608e-07 3.9618e-38
6.3927e-07 3.0242e-38
6.4248e-07 3.7055e-34
6.457e-07 1.329e-37
6.4894e-07 2.0464e-36
6.522e-07 9.1595e-34
6.5547e-07 6.7518e-33
6.5876e-07 1.2694e-33
6.6206e-07 2.824e-33
6.6538e-07 2.6049e-34
6.6872e-07 1.8893e-34
6.7207e-07 7.1062e-36
6.7544e-07 1.8758e-38
6.7883e-07 1.8599e-38
6.8224e-07 1.5792e-34
6.8566e-07 3.7747e-38
6.891e-07 1.2784e-38
6.9255e-07 4.4237e-38
6.9603e-07 4.3996e-34
6.9952e-07 4.474e-38
7.0303e-07 3.7937e-37
7.0655e-07 6.0655e-35
7.101e-07 1.1318e-32
7.1366e-07 2.3672e-33
7.1724e-07 3.4451e-32
7.2084e-07 2.8079e-33
7.2445e-07 6.5215e-33
7.2809e-07 1.7163e-33
7.3174e-07 3.6509e-35
7.3541e-07 2.1209e-34
7.391e-07 1.3108e-34
7.428e-07 4.4009e-38
7.4653e-07 6.6702e-39
7.5027e-07 8.6923e-39
7.5404e-07 2.2551e-38
7.5782e-07 1.5459e-34
7.6162e-07 4.6414e-38
7.6544e-07 1.6839e-38
7.6928e-07 9.131e-38
7.7314e-07 4.1088e-34
7.7702e-07 1.8587e-35
7.8091e-07 4.5315e-34
7.8483e-07 1.4098e-31
7.8877e-07 1.8998e-31
7.9272e-07 1.933e-32
7.967e-07 9.7794e-33
8.007e-07 1.2848e-33
8.0471e-07 4.4944e-33
8.0875e-07 9.5922e-34
8.1281e-07 1.2511e-33
8.1688e-07 8.3642e-37
8.2098e-07 4.4148e-33
8.251e-07 2.7575e-34
8.2924e-07 1.6268e-32
8.334e-07 2.5559e-33
8.3758e-07 1.5958e-33
8.4178e-07 1.8084e-33
8.46e-07 3.2419e-37
8.5024e-07 1.6275e-35
8.5451e-07 2.299e-34
8.5879e-07 4.3181e-35
8.631e-07 1.8687e-34
8.6743e-07 9.557e-34
8.7178e-07 4.8895e-31
8.7615e-07 9.1425e-32
8.8055e-07 1.0702e-32
8.8496e-07 1.3475e-33
8.894e-07 7.7764e-35
8.9386e-07 3.5949e-32
8.9835e-07 8.8234e-33
9.0285e-07 4.9509e-34
9.0738e-07 3.0506e-33
9.1193e-07 4.3994e-32
9.1651e-07 1.171e-33
9.211e-07 4.3087e-31
9.2572e-07 1.2981e-31
9.3037e-07 1.0262e-31
9.3503e-07 2.4063e-31
9.3972e-07 1.9157e-32
9.4444e-07 3.9513e-32
9.4918e-07 1.4689e-32
9.5394e-07 3.6892e-33
9.5872e-07 3.1809e-36
9.6353e-07 3.1936e-33
9.6836e-07 2.7473e-33
9.7322e-07 2.3179e-33
9.781e-07 8.867e-33
9.8301e-07 1.9979e-32
9.8794e-07 1.3953e-33
9.9289e-07 2.257e-32
9.9787e-07 7.6456e-33
1.0029e-06 1.2434e-34
1.0079e-06 1.5781e-34
1.013e-06 2.2746e-32
1.018e-06 2.5735e-33
1.0232e-06 3.4801e-34
1.0283e-06 8.367e-34
1.03e-06 1.9961e-33

File: co2_uv_vis_toa_T0_P1.txt
2.8e-07 -0
2.814e-07 -0
2.8282e-07 -0
2.8423e-07 -0
2.8566e-07 -0
2.8709e-07 -0
2.8853e-07 -0
2.8998e-07 -0
2.9143e-07 -0
2.929e-07 -0
2.9437e-07 -0
2.9584e-07 -0
2.9733e-07 -0
2.9882e-07 -0
3.0032e-07 -0
3.0182e-07 -0
3.0334e-07 -0
3.0486e-07 -0
3.0639e-07 -0
3.0792e-07 -0
3.0947e-07 -0
3.1102e-07 -0
3.1258e-07 -0
3.1415e-07 -0
3.1572e-07 -0
3.1731e-07 -0
3.189e-07 -0
3.205e-07 -0
3.2211e-07 -0
3.2372e-07 -0
3.2535e-07 -0
3.2698e-07 -0
3.2862e-07 -0
3.3027e-07 -0
3.3192e-07 -0
3.3359e-07 -0
3.3526e-07 -0
3.3694e-07 -0
3.3863e-07 -0
3.4033e-07 -0
3.4204e-07 -0
3.4375e-07 -0
3.4548e-07 -0
3.4721e-07 -0
3.4895e-07 -0
3.507e-07 -0
3.5246e-07 -0
3.5423e-07 -0
3.5601e-07 -0
3.5779e-07 -0
3.5959e-07 -0
3.6139e-07 -0
3.632e-07 -0
3.6502e-07 -0
3.6686e-07 -0
3.687e-07 -0
3.7054e-07 -0
3.724e-07 -0
3.7427e-07 -0
3.7615e-07 -0
3.7804e-07 -0
3.7993e-07 -0
3.8184e-07 -0
3.8375e-07 -0
3.8568e-07 -0
3.8761e-07 -0
3.8956e-07 -0
3.9151e-07 -0
3.9347e-07 -0
3.9545e-07 -0
3.9743e-07 -0
3.9942e-07 -0
4.0143e-07 -0
4.0344e-07 -0
4.0546e-07 -0
4.075e-07 -0
4.0954e-07 -0
4.116e-07 -0
4.1366e-07 -0
4.1574e-07 -0
4.1782e-07 -0
4.1992e-07 -0
4.2202e-07 -0
4.2414e-07 -0
4.2627e-07 -0
4.2841e-07 -0
4.3055e-07 -0
4.3271e-07 -0
4.3488e-07 -0
4.3707e-07 -0
4.3926e-07 -0
4.4146e-07 -0
4.4368e-07 -0
4.459e-07 -0
4.4814e-07 -0
4.5038e-07 -0
4.5264e-07 -0
4.5491e-07 -0
4.572e-07 -0
4.5949e-07 -0
4.6179e-07 -0
4.6411e-07 -0
4.6644e-07 -0
4.6878e-07 -0
4.7113e-07 -0
4.7349e-07 -0
4.7587e-07 -0
4.7825e-07 -0
4.8065e-07 -0
4.8306e-07 -0
4.8549e-07 -0
4.8792e-07 -0
4.9037e-07 -0
4.9283e-07 -0
4.953e-07 -0
4.9779e-07 1.7206e-39
5.0028e-07 1.1581e-38
5.0279e-07 2.2099e-34
5.0531e-07 1.0138e-38
5.0785e-07 1.4437e-39
5.104e-07 -1.6658e-41
5.1296e-07 5.3631e-39
5.1553e-07 1.4742e-36
5.1811e-07 1.3439e-37
5.2071e-07 1.6947e-38
5.2332e-07 1.3852e-34
5.2595e-07 7.3364e-39
5.2859e-07 3.1553e-39
5.3124e-07 1.1041e-38
5.339e-07 1.4541e-34
5.3658e-07 1.0025e-38
5.3927e-07 1.566e-38
5.4198e-07 2.4335e-34
5.447e-07 1.1876e-35
5.4743e-07 7.2017e-35
5.5017e-07 3.0247e-34
5.5293e-07 2.1609e-38
5.5571e-07 2.3764e-38
5.5849e-07 3.5771e-35
5.613e-07 1.4766e-38
5.6411e-07 1.0267e-34
5.6694e-07 2.0664e-36
5.6978e-07 5.3985e-39
5.7264e-07 2.9186e-39
5.7551e-07 1.2735e-38
5.784e-07 1.9975e-34
5.813e-07 2.2882e-37
5.8422e-07 1.9801e-34
5.8715e-07 1.6503e-34
5.9009e-07 8.3069e-38
5.9305e-07 1.9507e-38
5.9603e-07 1.6715e-35
5.9902e-07 4.0141e-35
6.0202e-07 8.5051e-38
6.0504e-07 7.7004e-34
6.0808e-07 8.5094e-37
6.1113e-07 2.5984e-34
6.1419e-07 1.2882e-34
6.1727e-07 7.9125e-38
6.2037e-07 1.5707e-34
6.2348e-07 7.8145e-38
6.2661e-07 8.3445e-37
6.2975e-07 4.1689e-34
6.3291e-07 9.4206e-35
6.3608e-07 3.5766e-38
6.3927e-07 2.7148e-38
6.4248e-07 3.7132e-34
6.457e-07 1.1994e-37
6.4894e-07 1.8392e-36
6.522e-07 9.1089e-34
6.5547e-07 6.6941e-33
6.5876e-07 1.2932e-33
6.6206e-07 2.802e-33
6.6538e-07 2.6357e-34
6.6872e-07 1.869e-34
6.7207e-07 7.1576e-36
6.7544e-07 1.6886e-38
6.7883e-07 1.6763e-38
6.8224e-07 1.5697e-34
6.8566e-07 3.4054e-38
6.891e-07 1.109e-38
6.9255e-07 3.9612e-38
6.9603e-07 4.4364e-34
6.9952e-07 4.0419e-38
7.0303e-07 3.3993e-37
7.0655e-07 5.8754e-35
7.101e-07 1.1338e-32
7.1366e-07 2.3601e-33
7.1724e-07 3.4586e-32
7.2084e-07 2.8248e-33
7.2445e-07 6.5533e-33
7.2809e-07 1.7164e-33
7.3174e-07 3.7962e-35
7.3541e-07 2.112e-34
7.391e-07 1.3103e-34
7.428e-07 3.989e-38
7.4653e-07 6.0489e-39
7.5027e-07 7.7792e-39
7.5404e-07 2.03e-38
7.5782e-07 1.5254e-34
7.6162e-07 4.1914e-38
7.6544e-07 1.4951e-38
7.6928e-07 8.0391e-38
7.7314e-07 4.1214e-34
7.7702e-07 1.6763e-35
7.8091e-07 4.0838e-34
7.8483e-07 1.4056e-31
7.8877e-07 1.8734e-31
7.9272e-07 1.8868e-32
7.967e-07 9.5758e-33
8.007e-07 1.2807e-33
8.0471e-07 4.3513e-33
8.0875e-07 9.5569e-34
8.1281e-07 1.2611e-33
8.1688e-07 7.535e-37
8.2098e-07 4.4675e-33
8.251e-07 2.7579e-34
8.2924e-07 1.6317e-32
8.334e-07 2.5549e-33
8.3758e-07 1.5817e-33
8.4178e-07 1.801e-33
8.46e-07 2.9324e-37
8.5024e-07 1.5246e-35
8.5451e-07 2.2736e-34
8.5879e-07 3.9046e-35
8.631e-07 1.8174e-34
8.6743e-07 8.6495e-34
8.7178e-07 4.8481e-31
8.7615e-07 9.0657e-32
8.8055e-07 1.0711e-32
8.8496e-07 1.3382e-33
8.894e-07 7.6758e-35
8.9386e-07 3.5532e-32
8.9835e-07 8.6637e-33
9.0285e-07 4.9571e-34
9.0738e-07 3.0717e-33
9.1193e-07 4.3545e-32
9.1651e-07 1.1672e-33
9.211e-07 4.2144e-31
9.2572e-07 1.2964e-31
9.3037e-07 1.0815e-31
9.3503e-07 2.4119e-31
9.3972e-07 1.9234e-32
9.4444e-07 3.8841e-32
9.4918e-07 1.4278e-32
9.5394e-07 3.762e-33
9.5872e-07 2.9304e-36
9.6353e-07 3.1944e-33
9.6836e-07 2.7472e-33
9.7322e-07 2.3058e-33
9.781e-07 8.9676e-33
9.8301e-07 1.9891e-32
9.8794e-07 1.3896e-33
9.9289e-07 2.2415e-32
9.9787e-07 7.6022e-33
1.0029e-06 1.1974e-34
1.0079e-06 1.5712e-34
1.013e-06 2.2506e-32
1.018e-06 2.547e-33
1.0232e-06 3.2905e-34
1.0283e-06 7.881e-34
1.03e-06 1.9022e-33

File: co2_uv_vis_toa_T1_P0.txt
2.8e-07 -0
2.814e-07 -0
2.8282e-07 -0
2.8423e-07 -0
2.8566e-07 -0
2.8709e-07 -0
2.8853e-07 -0
2.8998e-07 -0
2.9143e-07 -0
2.929e-07 -0
2.9437e-07 -0
2.9584e-07 -0
2.9733e-07 -0
2.9882e-07 -0
3.0032e-07 -0
3.0182e-07 -0
3.0334e-07 -0
3.0486e-07 -0
3.0639e-07 -0
3.0792e-07 -0
3.0947e-07 -0
3.1102e-07 -0
3.1258e-07 -0
3.1415e-07 -0
3.1572e-07 -0
3.1731e-07 -0
3.189e-07 -0
3.205e-07 -0
3.2211e-07 -0
3.2372e-07 -0
3.2535e-07 -0
3.2698e-07 -0
3.2862e-07 -0
3.3027e-07 -0
3.3192e-07 -0
3.3359e-07 -0
3.3526e-07 -0
3.3694e-07 -0
3.3863e-07 -0
3.4033e-07 -0
3.4204e-07 -0
3.4375e-07 -0
3.4548e-07 -0
3.4721e-07 -0
3.4895e-07 -0
3.507e-07 -0
3.5246e-07 -0
3.5423e-07 -0
3.5601e-07 -0
3.5779e-07 -0
3.5959e-07 -0
3.6139e-07 -0
3.632e-07 -0
3.6502e-07 -0
3.6686e-07 -0
3.687e-07 -0
3.7054e-07 -0
3.724e-07 -0
3.7427e-07 -0
3.7615e-07 -0
3.7804e-07 -0
3.7993e-07 -0
3.8184e-07 -0
3.8375e-07 -0
3.8568e-07 -0
3.8761e-07 -0
3.8956e-07 -0
3.9151e-07 -0
3.9347e-07 -0
3.9545e-07 -0
3.9743e-07 -0
3.9942e-07 -0
4.0143e-07 -0
4.0344e-07 -0
4.0546e-07 -0
4.075e-07 -0
4.0954e-07 -0
4.116e-07 -0
4.1366e-07 -0
4.1574e-07 -0
4.1782e-07 -0
4.1992e-07 -0
4.2202e-07 -0
4.2414e-07 -0
4.2627e-07 -0
4.2841e-07 -0
4.3055e-07 -0
4.3271e-07 -0
4.3488e-07 -0
4.3707e-07 -0
4.3926e-07 -0
4.4146e-07 -0
4.4368e-07 -0
4.459e-07 -0
4.4814e-07 -0
4.5038e-07 -0
4.5264e-07 -0
4.5491e-07 -0
4.572e-07 -0
4.5949e-07 -0
4.6179e-07 -0
4.6411e-07 -0
4.6644e-07 -0
4.6878e-07 -0
4.7113e-07 -0
4.7349e-07 -0
4.7587e-07 -0
4.7825e-07 -0
4.8065e-07 -0
4.8306e-07 -0
4.8549e-07 -0
4.8792e-07 -0
4.9037e-07 -0
4.9283e-07 -0
4.953e-07 -0
4.9779e-07 2.6836e-39
5.0028e-07 1.8272e-38
5.0279e-07 2.9484e-34
5.0531e-07 1.5927e-38
5.0785e-07 2.0146e-39
5.104e-07 5.6845e-41
5.1296e-07 8.5717e-39
5.1553e-07 2.2075e-36
5.1811e-07 2.1435e-37
5.2071e-07 2.7072e-38
5.2332e-07 1.8354e-34
5.2595e-07 1.1614e-38
5.2859e-07 5.1897e-39
5.3124e-07 1.7573e-38
5.339e-07 1.9186e-34
5.3658e-07 1.6082e-38
5.3927e-07 2.5186e-38
5.4198e-07 3.2913e-34
5.447e-07 1.5441e-35
5.4743e-07 9.1074e-35
5.5017e-07 4.0531e-34
5.5293e-07 3.4414e-38
5.5571e-07 3.8082e-38
5.5849e-07 4.3756e-35
5.613e-07 2.3605e-38
5.6411e-07 1.3453e-34
5.6694e-07 3.0357e-36
5.6978e-07 8.463e-39
5.7264e-07 4.6969e-39
5.7551e-07 2.0283e-38
5.784e-07 2.6691e-34
5.813e-07 3.6317e-37
5.8422e-07 2.5071e-34
5.8715e-07 2.2083e-34
5.9009e-07 1.3521e-37
5.9305e-07 3.2298e-38
5.9603e-07 2.488e-35
5.9902e-07 5.455e-35
6.0202e-07 1.3539e-37
6.0504e-07 1.0415e-33
6.0808e-07 1.364e-36
6.1113e-07 3.4769e-34
6.1419e-07 1.7086e-34
6.1727e-07 1.2741e-37
6.2037e-07 2.0825e-34
6.2348e-07 1.2559e-37
6.2661e-07 1.3327e-36
6.2975e-07 5.586e-34
6.3291e-07 1.2534e-34
6.3608e-07 5.7346e-38
6.3927e-07 4.3484e-38
6.4248e-07 4.9829e-34
6.457e-07 1.9358e-37
6.4894e-07 2.9973e-36
6.522e-07 1.2446e-33
6.5547e-07 9.2861e-33
6.5876e-07 1.7242e-33
6.6206e-07 3.82e-33
6.6538e-07 3.5307e-34
6.6872e-07 2.5598e-34
6.7207e-07 9.433e-36
6.7544e-07 2.7455e-38
6.7883e-07 2.7124e-38
6.8224e-07 2.1357e-34
6.8566e-07 5.4387e-38
6.891e-07 1.8852e-38
6.9255e-07 6.3501e-38
6.9603e-07 5.7776e-34
6.9952e-07 6.4861e-38
7.0303e-07 5.5626e-37
7.0655e-07 8.4794e-35
7.101e-07 1.56e-32
7.1366e-07 3.206e-33
7.1724e-07 4.5873e-32
7.2084e-07 3.7059e-33
7.2445e-07 8.6032e-33
7.2809e-07 2.295e-33
7.3174e-07 4.756e-35
7.3541e-07 2.8471e-34
7.391e-07 1.7732e-34
7.428e-07 6.4144e-38
7.4653e-07 9.7167e-39
7.5027e-07 1.2667e-38
7.5404e-07 3.2813e-38
7.5782e-07 2.0945e-34
7.6162e-07 6.3304e-38
7.6544e-07 2.6021e-38
7.6928e-07 1.3228e-37
7.7314e-07 5.5582e-34
7.7702e-07 2.7656e-35
7.8091e-07 6.6859e-34
7.8483e-07 1.9001e-31
7.8877e-07 2.5793e-31
7.9272e-07 2.6089e-32
7.967e-07 1.3077e-32
8.007e-07 1.7197e-33
8.0471e-07 6.0367e-33
8.0875e-07 1.2515e-33
8.1281e-07 1.6467e-33
8.1688e-07 1.2129e-36
8.2098e-07 5.768e-33
8.251e-07 3.6436e-34
8.2924e-07 2.1561e-32
8.334e-07 3.4238e-33
8.3758e-07 2.1555e-33
8.4178e-07 2.4265e-33
8.46e-07 4.681e-37
8.5024e-07 2.2644e-35
8.5451e-07 3.2029e-34
8.5879e-07 6.2535e-35
8.631e-07 2.5836e-34
8.6743e-07 1.392e-33
8.7178e-07 6.6411e-31
8.7615e-07 1.2381e-31
8.8055e-07 1.4488e-32
8.8496e-07 1.8069e-33
8.894e-07 1.0474e-34
8.9386e-07 4.8897e-32
8.9835e-07 1.2148e-32
9.0285e-07 6.6013e-34
9.0738e-07 5.2729e-33
9.1193e-07 6.0366e-32
9.1651e-07 1.5837e-33
9.211e-07 5.8389e-31
9.2572e-07 1.7429e-31
9.3037e-07 1.2169e-31
9.3503e-07 3.1935e-31
9.3972e-07 2.5328e-32
9.4444e-07 5.5419e-32
9.4918e-07 2.0942e-32
9.5394e-07 4.7221e-33
9.5872e-07 4.472e-36
9.6353e-07 4.3342e-33
9.6836e-07 3.7359e-33
9.7322e-07 3.1847e-33
9.781e-07 1.1693e-32
9.8301e-07 2.6881e-32
9.8794e-07 1.892e-33
9.9289e-07 3.0515e-32
9.9787e-07 1.0371e-32
1.0029e-06 1.6966e-34
1.0079e-06 2.1293e-34
1.013e-06 3.1094e-32
1.018e-06 3.4915e-33
1.0232e-06 4.8868e-34
1.0283e-06 1.1811e-33
1.03e-06 2.7867e-33

File: h2o_uv_vis_T0_P0.txt
2.8e-07 -0
2.8141e-07 -0
2.8282e-07 -0
2.8424e-07 -0
2.8567e-07 -0
2.8711e-07 -0
2.8855e-07 -0
2.9e-07 -0
2.9145e-07 -0
2.9292e-07 -0
2.9439e-07 -0
2.9587e-07 -0
2.9736e-07 -0
2.9885e-07 -0
3.0035e-07 -0
3.0186e-07 -0
3.0338e-07 -0
3.049e-07 -0
3.0643e-07 -0
3.0797e-07 -0
3.0952e-07 -0
3.1108e-07 -0
3.1264e-07 -0
3.1421e-07 -0
3.1579e-07 -0
3.1738e-07 -0
3.1897e-07 -0
3.2057e-07 -0
3.2218e-07 -0
3.238e-07 -0
3.2543e-07 -0
3.2707e-07 -0
3.2871e-07 -0
3.3036e-07 -0
3.3202e-07 -0
3.3369e-07 -0
3.3537e-07 -0
3.3705e-07 -0
3.3874e-07 -0
3.4045e-07 -0
3.4216e-07 -0
3.4388e-07 -0
3.456e-07 -0
3.4734e-07 -0
3.4909e-07 -0
3.5084e-07 -0
3.526e-07 -0
3.5437e-07 -0
3.5615e-07 -0
3.5794e-07 -0
3.5974e-07 -0
3.6155e-07 -0
3.6337e-07 -0
3.6519e-07 -0
3.6703e-07 -0
3.6887e-07 -0
3.7073e-07 -0
3.7259e-07 -0
3.7446e-07 -0
3.7634e-07 -0
3.7823e-07 -0
3.8013e-07 -0
3.8204e-07 -0
3.8396e-07 -0
3.8589e-07 2.3589e-37
3.8783e-07 6.0055e-35
3.8978e-07 4.7065e-32
3.9174e-07 7.3593e-32
3.9371e-07 3.699e-32
3.9568e-07 1.0203e-31
3.9767e-07 5.8815e-31
3.9967e-07 4.3299e-31
4.0168e-07 1.5962e-31
4.037e-07 5.7857e-32
4.0573e-07 1.6529e-32
4.0776e-07 5.4713e-33
4.0981e-07 2.4755e-34
4.1187e-07 9.9034e-33
4.1394e-07 5.1881e-32
4.1602e-07 3.7787e-31
4.1811e-07 2.3488e-31
4.2021e-07 1.0301e-31
4.2232e-07 1.9864e-32
4.2445e-07 2.0772e-32
4.2658e-07 1.0091e-31
4.2872e-07 6.5618e-32
4.3088e-07 1.5928e-32
4.3304e-07 1.3969e-33
4.3522e-07 2.5921e-33
4.374e-07 5.6e-33
4.396e-07 1.6534e-31
4.4181e-07 1.4518e-30
4.4403e-07 1.6732e-30
4.4626e-07 1.4275e-30
4.485e-07 4.2927e-31
4.5076e-07 7.0087e-32
4.5302e-07 5.3569e-32
4.553e-07 6.0934e-32
4.5759e-07 5.7612e-32
4.5989e-07 2.9747e-32
4.622e-07 4.1334e-33
4.6452e-07 9.7459e-33
4.6685e-07 3.9323e-31
4.692e-07 1.0233e-30
4.7156e-07 7.7733e-31
4.7393e-07 5.2205e-31
4.7631e-07 1.4256e-31
4.787e-07 1.9386e-32
4.8111e-07 3.0491e-33
4.8352e-07 2.0816e-31
4.8595e-07 9.664e-31
4.8839e-07 8.5795e-31
4.9085e-07 4.6357e-31
4.9331e-07 1.5811e-31
4.9579e-07 3.0643e-32
4.9828e-07 2.6582e-31
5.0079e-07 1.7634e-30
5.033e-07 1.1348e-29
5.0583e-07 8.9419e-30
5.0837e-07 7.9791e-30
5.1093e-07 2.8026e-30
5.135e-07 6.3586e-31
5.1608e-07 1.6491e-31
5.1867e-07 8.2859e-32
5.2127e-07 5.9604e-32
5.2389e-07 9.8204e-31
5.2653e-07 7.2838e-31
5.2917e-07 6.9851e-31
5.3183e-07 4.6702e-31
5.345e-07 2.2151e-31
5.3719e-07 5.7571e-31
5.3989e-07 3.2407e-30
5.426e-07 6.0052e-30
5.4533e-07 5.7067e-30
5.4807e-07 3.139e-30
5.5082e-07 1.4669e-30
5.5359e-07 3.2451e-31
5.5637e-07 7.2761e-32
5.5917e-07 2.2289e-31
5.6198e-07 4.3891e-31
5.648e-07 4.7103e-31
5.6764e-07 5.6972e-30
5.7049e-07 9.1821e-30
5.7336e-07 8.9391e-30
5.7624e-07 6.4304e-30
5.7913e-07 2.723e-30
5.8204e-07 2.1587e-30
5.8497e-07 3.9899e-30
5.8791e-07 3.6947e-29
5.9086e-07 6.3846e-29
5.9383e-07 5.4651e-29
5.9681e-07 3.8096e-29
5.9981e-07 1.656e-29
6.0282e-07 4.1242e-30
6.0585e-07 8.1622e-31
6.089e-07 1.955e-31
6.1196e-07 6.2469e-32
6.1503e-07 4.5637e-32
6.1812e-07 8.5273e-32
6.2123e-07 1.3747e-31
6.2435e-07 6.404e-31
6.2749e-07 8.9529e-30
6.3064e-07 5.4401e-30
6.3381e-07 6.189e-30
6.3699e-07 4.6955e-30
6.4019e-07 4.0515e-30
6.4341e-07 5.4664e-30
6.4664e-07 3.8139e-29
6.4989e-07 3.6981e-29
6.5316e-07 3.1647e-29
6.5644e-07 3.0072e-29
6.5974e-07 1.0478e-29
6.6305e-07 3.0988e-30
6.6638e-07 1.5546e-30
6.6973e-07 3.9674e-31
6.731e-07 9.9485e-32
6.7648e-07 1.711e-31
6.7988e-07 6.8328e-31
6.8329e-07 2.002e-30
6.8673e-07 3.1836e-30
6.9018e-07 6.3499e-30
6.9365e-07 1.0547e-28
6.9713e-07 5.3111e-29
7.0063e-07 8.5969e-29
7.0415e-07 5.6722e-29
7.0769e-07 3.6327e-29
7.1125e-07 2.4536e-29
7.1482e-07 4.8249e-29
7.1841e-07 4.3202e-28
7.2202e-07 1.9832e-28
7.2565e-07 3.3087e-28
7.293e-07 2.8339e-28
7.3296e-07 1.2536e-28
7.3664e-07 7.4964e-29
7.4035e-07 3.181e-29
7.4407e-07 7.0859e-30
7.478e-07 2.0099e-30
7.5156e-07 9.6745e-31
7.5534e-07 3.9136e-31
7.5913e-07 3.8258e-31
7.6295e-07 1.1833e-31
7.6678e-07 3.0901e-32
7.7063e-07 5.6884e-32
7.7451e-07 1.8665e-31
7.784e-07 4.0719e-31
7.8231e-07 1.5049e-30
7.8624e-07 1.5556e-29
7.9019e-07 5.0275e-29
7.9416e-07 2.5423e-29
7.9815e-07 4.0234e-29
8.0216e-07 5.4094e-29
8.0619e-07 2.9244e-29
8.1024e-07 6.5408e-29
8.1431e-07 3.2057e-28
8.1841e-07 3.7569e-28
8.2252e-07 3.4995e-28
8.2665e-07 1.9718e-28
8.308e-07 2.23e-28
8.3498e-07 1.1471e-28
8.3917e-07 4.9184e-29
8.4339e-07 2.3653e-29
8.4763e-07 9.4484e-30
8.5189e-07 1.3831e-29
8.5617e-07 7.5837e-30
8.6047e-07 2.4623e-30
8.6479e-07 6.305e-31
8.6914e-07 3.214e-31
8.735e-07 6.4659e-31
8.7789e-07 2.7962e-30
8.823e-07 6.621e-30
8.8674e-07 1.3123e-29
8.9119e-07 2.9411e-29
8.9567e-07 3.0663e-28
9.0017e-07 5.3922e-28
9.0469e-07 2.3215e-28
9.0924e-07 4.9166e-28
9.1381e-07 5.3732e-28
9.184e-07 4.153e-28
9.2301e-07 2.6438e-28
9.2765e-07 5.2067e-28
9.3231e-07 1.9299e-27
9.37e-07 2.0793e-27
9.4171e-07 1.2614e-27
9.4644e-07 1.6279e-27
9.5119e-07 1.4097e-27
9.5597e-07 1.2915e-27
9.6078e-07 1.0992e-27
9.656e-07 7.494e-28
9.7046e-07 2.8342e-28
9.7533e-07 4.5157e-28
9.8023e-07 2.9821e-28
9.8516e-07 1.2471e-28
9.9011e-07 4.6159e-29
9.9508e-07 1.7422e-29
1.0001e-06 1.9141e-29
1.0051e-06 1.6683e-29
1.0102e-06 2.1165e-29
1.0152e-06 8.7141e-30
1.0203e-06 9.8311e-30
1.0255e-06 1.0417e-29
1.0306e-06 4.2541e-30
1.0358e-06 1.2208e-30
1.041e-06 9.384e-31
1.0462e-06 4.5451e-31
1.0515e-06 5.7187e-31
1.0568e-06 8.4824e-31
1.0621e-06 2.6756e-30
1.0674e-06 8.1229e-30
1.0728e-06 1.9462e-29
1.0782e-06 3.9254e-29
1.0836e-06 6.9359e-29
1.089e-06 8.599e-29
1.0945e-06 1.5584e-28
1.1e-06 3.1029e-28

File: h2o_uv_vis_T0_P1.txt
2.8e-07 -0
2.814e-07 -0
2.8282e-07 -0
2.8423e-07 -0
2.8566e-07 -0
2.8709e-07 -0
2.8853e-07 -0
2.8998e-07 -0
2.9143e-07 -0
2.929e-07 -0
2.9437e-07 -0
2.9584e-07 -0
2.9733e-07 -0
2.9882e-07 -0
3.0032e-07 -0
3.0182e-07 -0
3.0334e-07 -0
3.0486e-07 -0
3.0639e-07 -0
3.0792e-07 -0
3.0947e-07 -0
3.1102e-07 -0
3.1258e-07 -0
3.1415e-07 -0
3.1572e-07 -0
3.1731e-07 -0
3.189e-07 -0
3.205e-07 -0
3.2211e-07 -0
3.2372e-07 -0
3.2535e-07 -0
3.2698e-07 -0
3.2862e-07 -0
3.3027e-07 -0
3.3192e-07 -0
3.3359e-07 -0
3.3526e-07 -0
3.3694e-07 -0
3.3863e-07 -0
3.4033e-07 -0
3.4204e-07 -0
3.4375e-07 -0
3.4548e-07 -0
3.4721e-07 -0
3.4895e-07 -0
3.507e-07 -0
3.5246e-07 -0
3.5423e-07 -0
3.5601e-07 -0
3.5779e-07 -0
3.5959e-07 -0
3.6139e-07 -0
3.632e-07 -0
3.6502e-07 -0
3.6686e-07 -0
3.687e-07 -0
3.7054e-07 -0
3.724e-07 -0
3.7427e-07 -0
3.7615e-07 -0
3.7804e-07 -0
3.7993e-07 -0
3.8184e-07 -0
3.8375e-07 -0
3.8568e-07 2.6115e-38
3.8761e-07 6.5087e-36
3.8956e-07 2.6697e-32
3.9151e-07 7.3263e-32
3.9347e-07 4.811e-32
3.9545e-07 4.8493e-32
3.9743e-07 8.461e-31
3.9942e-07 4.5802e-31
4.0143e-07 1.646e-31
4.0344e-07 6.0534e-32
4.0546e-07 2.1304e-32
4.075e-07 5.0679e-33
4.0954e-07 2.0756e-35
4.116e-07 2.1382e-33
4.1366e-07 3.1825e-32
4.1574e-07 2.7374e-31
4.1782e-07 2.1578e-31
4.1992e-07 1.2298e-31
4.2202e-07 2.4736e-32
4.2414e-07 2.3045e-33
4.2627e-07 1.4814e-31
4.2841e-07 6.1383e-32
4.3055e-07 2.2856e-32
4.3271e-07 1.976e-33
4.3488e-07 1.8536e-35
4.3707e-07 5.7653e-35
4.3926e-07 1.309e-31
4.4146e-07 9.5979e-31
4.4368e-07 1.3188e-30
4.459e-07 1.7832e-30
4.4814e-07 4.8754e-31
4.5038e-07 9.0746e-32
4.5264e-07 5.4304e-32
4.5491e-07 6.3739e-32
4.572e-07 6.89e-32
4.5949e-07 3.3423e-32
4.6179e-07 2.577e-33
4.6411e-07 9.7208e-33
4.6644e-07 2.0965e-31
4.6878e-07 7.7164e-31
4.7113e-07 8.9795e-31
4.7349e-07 6.5096e-31
4.7587e-07 1.7283e-31
4.7825e-07 2.8423e-32
4.8065e-07 8.777e-35
4.8306e-07 6.1883e-32
4.8549e-07 1.2571e-30
4.8792e-07 8.7421e-31
4.9037e-07 5.0929e-31
4.9283e-07 2.1655e-31
4.953e-07 3.4708e-32
4.9779e-07 1.0854e-31
5.0028e-07 1.1081e-30
5.0279e-07 5.7771e-30
5.0531e-07 6.8194e-30
5.0785e-07 9.8132e-30
5.104e-07 3.469e-30
5.1296e-07 8.6505e-31
5.1553e-07 1.9453e-31
5.1811e-07 9.0892e-32
5.2071e-07 4.7105e-32
5.2332e-07 4.5419e-31
5.2595e-07 3.9569e-31
5.2859e-07 6.5705e-31
5.3124e-07 5.4677e-31
5.339e-07 1.9485e-31
5.3658e-07 4.569e-31
5.3927e-07 1.6486e-30
5.4198e-07 6.991e-30
5.447e-07 4.5745e-30
5.4743e-07 3.6923e-30
5.5017e-07 1.9127e-30
5.5293e-07 4.3074e-31
5.5571e-07 1.071e-31
5.5849e-07 1.6775e-31
5.613e-07 3.9224e-31
5.6411e-07 4.1052e-31
5.6694e-07 1.7544e-30
5.6978e-07 1.3772e-29
5.7264e-07 9.6718e-30
5.7551e-07 6.9061e-30
5.784e-07 3.2665e-30
5.813e-07 1.9119e-30
5.8422e-07 3.0327e-30
5.8715e-07 1.3807e-29
5.9009e-07 7.3832e-29
5.9305e-07 4.254e-29
5.9603e-07 3.9096e-29
5.9902e-07 2.2617e-29
6.0202e-07 6.0283e-30
6.0504e-07 1.1215e-30
6.0808e-07 2.6131e-31
6.1113e-07 7.4041e-32
6.1419e-07 3.891e-32
6.1727e-07 6.061e-32
6.2037e-07 1.2035e-31
6.2348e-07 2.7267e-31
6.2661e-07 5.1811e-30
6.2975e-07 7.2554e-30
6.3291e-07 7.2223e-30
6.3608e-07 4.8968e-30
6.3927e-07 4.0972e-30
6.4248e-07 4.063e-30
6.457e-07 1.7119e-29
6.4894e-07 5.3058e-29
6.522e-07 5.0912e-29
6.5547e-07 3.6656e-29
6.5876e-07 1.5357e-29
6.6206e-07 3.2888e-30
6.6538e-07 1.9319e-30
6.6872e-07 6.473e-31
6.7207e-07 1.3003e-31
6.7544e-07 8.7891e-32
6.7883e-07 4.1431e-31
6.8224e-07 1.7463e-30
6.8566e-07 2.4631e-30
6.891e-07 2.5292e-30
6.9255e-07 6.08e-29
6.9603e-07 9.7258e-29
6.9952e-07 9.1851e-29
7.0303e-07 7.002e-29
7.0655e-07 4.2757e-29
7.101e-07 2.9223e-29
7.1366e-07 2.6355e-29
7.1724e-07 3.3255e-28
7.2084e-07 3.2283e-28
7.2445e-07 3.6976e-28
7.2809e-07 2.9697e-28
7.3174e-07 2.1545e-28
7.3541e-07 8.0121e-29
7.391e-07 4.7475e-29
7.428e-07 1.2425e-29
7.4653e-07 2.807e-30
7.5027e-07 1.3231e-30
7.5404e-07 5.223e-31
7.5782e-07 4.4842e-31
7.6162e-07 2.1411e-31
7.6544e-07 4.2175e-32
7.6928e-07 3.1496e-32
7.7314e-07 1.373e-31
7.7702e-07 2.2744e-31
7.8091e-07 7.2667e-31
7.8483e-07 6.0589e-30
7.8877e-07 4.1177e-29
7.9272e-07 4.1357e-29
7.967e-07 6.1511e-29
8.007e-07 5.6303e-29
8.0471e-07 4.2604e-29
8.0875e-07 3.8703e-29
8.1281e-07 1.7642e-28
8.1688e-07 4.5583e-28
8.2098e-07 1.3911e-28
8.251e-07 1.4917e-28
8.2924e-07 2.6375e-28
8.334e-07 1.6797e-28
8.3758e-07 7.4716e-29
8.4178e-07 3.5626e-29
8.46e-07 1.0291e-29
8.5024e-07 1.0909e-29
8.5451e-07 1.0807e-29
8.5879e-07 3.895e-30
8.631e-07 1.1464e-30
8.6743e-07 3.3175e-31
8.7178e-07 3.4705e-31
8.7615e-07 1.4764e-30
8.8055e-07 4.8017e-30
8.8496e-07 7.9176e-30
8.894e-07 1.1936e-29
8.9386e-07 1.2657e-28
8.9835e-07 5.2126e-28
9.0285e-07 3.8023e-28
9.0738e-07 4.8323e-28
9.1193e-07 4.1086e-28
9.1651e-07 5.0843e-28
9.211e-07 2.4308e-28
9.2572e-07 2.7715e-28
9.3037e-07 1.1971e-27
9.3503e-07 2.3629e-27
9.3972e-07 9.7577e-28
9.4444e-07 1.7619e-27
9.4918e-07 1.4696e-27
9.5394e-07 1.204e-27
9.5872e-07 1.2213e-27
9.6353e-07 8.6424e-28
9.6836e-07 3.5064e-28
9.7322e-07 4.0647e-28
9.781e-07 3.2133e-28
9.8301e-07 1.9565e-28
9.8794e-07 6.4e-29
9.9289e-07 3.8585e-29
9.9787e-07 1.2906e-29
1.0029e-06 2.6007e-29
1.0079e-06 1.7249e-29
1.013e-06 9.5356e-30
1.018e-06 8.2126e-30
1.0232e-06 1.6219e-29
1.0283e-06 9.0176e-30
1.03e-06 3.6512e-30