Folder: Flick-RT/material/gas/smooth_input (part 6)

File: o3_uv_vis_T0_P1.txt
2.8e-07 3.9348e-22
2.814e-07 3.3917e-22
2.8282e-07 2.9989e-22
2.8423e-07 2.5907e-22
2.8566e-07 2.2388e-22
2.8709e-07 1.956e-22
2.8853e-07 1.613e-22
2.8998e-07 1.3684e-22
2.9143e-07 1.1452e-22
2.929e-07 9.6572e-23
2.9437e-07 7.937e-23
2.9584e-07 6.4314e-23
2.9733e-07 5.2881e-23
2.9882e-07 4.3559e-23
3.0032e-07 3.5228e-23
3.0182e-07 2.8449e-23
3.0334e-07 2.27e-23
3.0486e-07 1.8699e-23
3.0639e-07 1.5675e-23
3.0792e-07 1.2138e-23
3.0947e-07 9.8361e-24
3.1102e-07 8.107e-24
3.1258e-07 6.179e-24
3.1415e-07 5.2732e-24
3.1572e-07 4.4141e-24
3.1731e-07 3.4166e-24
3.189e-07 2.2078e-24
3.205e-07 2.1405e-24
3.2211e-07 1.8974e-24
3.2372e-07 8.8933e-25
3.2535e-07 1.291e-24
3.2698e-07 5.8288e-25
3.2862e-07 6.5327e-25
3.3027e-07 4.6368e-25
3.3192e-07 3.2729e-25
3.3359e-07 3.6687e-25
3.3526e-07 1.219e-25
3.3694e-07 2.1993e-25
3.3863e-07 8.1576e-26
3.4033e-07 1.4334e-25
3.4204e-07 3.349e-26
3.4375e-07 7.834e-26
3.4548e-07 3.2789e-26
3.4721e-07 3.2963e-26
3.4895e-07 1.0296e-26
3.507e-07 1.0723e-26
3.5246e-07 1.5612e-26
3.5423e-07 3.7123e-27
3.5601e-07 2.9036e-27
3.5779e-07 2.4345e-27
3.5959e-07 5.6176e-27
3.6139e-07 1.8304e-27
3.632e-07 9.3647e-28
3.6502e-07 1.3024e-27
3.6686e-07 7.0129e-28
3.687e-07 5.8675e-28
3.7054e-07 1.1991e-27
3.724e-07 7.3641e-28
3.7427e-07 6.5688e-28
3.7615e-07 1.0992e-27
3.7804e-07 6.9395e-28
3.7993e-07 5.3105e-28
3.8184e-07 5.4328e-28
3.8375e-07 5.6178e-28
3.8568e-07 5.5783e-28
3.8761e-07 7.6264e-28
3.8956e-07 9.5615e-28
3.9151e-07 1.0055e-27
3.9347e-07 9.8225e-28
3.9545e-07 1.205e-27
3.9743e-07 1.1833e-27
3.9942e-07 1.2227e-27
4.0143e-07 1.3592e-27
4.0344e-07 1.4477e-27
4.0546e-07 1.4771e-27
4.075e-07 2.1327e-27
4.0954e-07 2.7131e-27
4.116e-07 2.7287e-27
4.1366e-07 2.4249e-27
4.1574e-07 3.2001e-27
4.1782e-07 3.8178e-27
4.1992e-07 3.7301e-27
4.2202e-07 4.7617e-27
4.2414e-07 6.6463e-27
4.2627e-07 7.4554e-27
4.2841e-07 6.6599e-27
4.3055e-07 6.8913e-27
4.3271e-07 8.8238e-27
4.3488e-07 9.0293e-27
4.3707e-07 9.6338e-27
4.3926e-07 1.3264e-26
4.4146e-07 1.7551e-26
4.4368e-07 1.8903e-26
4.459e-07 1.6277e-26
4.4814e-07 1.659e-26
4.5038e-07 2.0367e-26
4.5264e-07 2.0599e-26
4.5491e-07 2.1761e-26
4.572e-07 2.773e-26
4.5949e-07 3.7031e-26
4.6179e-07 4.2549e-26
4.6411e-07 3.8339e-26
4.6644e-07 3.5e-26
4.6878e-07 4.0859e-26
4.7113e-07 4.4044e-26
4.7349e-07 4.4305e-26
4.7587e-07 5.1288e-26
4.7825e-07 6.6176e-26
4.8065e-07 8.2735e-26
4.8306e-07 8.8046e-26
4.8549e-07 8.1282e-26
4.8792e-07 7.7643e-26
4.9037e-07 8.4773e-26
4.9283e-07 8.8929e-26
4.953e-07 9.1608e-26
4.9779e-07 1.0344e-25
5.0028e-07 1.268e-25
5.0279e-07 1.558e-25
5.0531e-07 1.7215e-25
5.0785e-07 1.7034e-25
5.104e-07 1.6017e-25
5.1296e-07 1.6158e-25
5.1553e-07 1.7064e-25
5.1811e-07 1.7881e-25
5.2071e-07 1.8877e-25
5.2332e-07 2.0728e-25
5.2595e-07 2.3291e-25
5.2859e-07 2.6044e-25
5.3124e-07 2.8227e-25
5.339e-07 2.9142e-25
5.3658e-07 2.9091e-25
5.3927e-07 2.9682e-25
5.4198e-07 3.1666e-25
5.447e-07 3.3069e-25
5.4743e-07 3.401e-25
5.5017e-07 3.4674e-25
5.5293e-07 3.5425e-25
5.5571e-07 3.6746e-25
5.5849e-07 3.8983e-25
5.613e-07 4.188e-25
5.6411e-07 4.4414e-25
5.6694e-07 4.6419e-25
5.6978e-07 4.9167e-25
5.7264e-07 5.0283e-25
5.7551e-07 5.0335e-25
5.784e-07 4.8953e-25
5.813e-07 4.74e-25
5.8422e-07 4.6441e-25
5.8715e-07 4.6879e-25
5.9009e-07 4.9504e-25
5.9305e-07 4.9982e-25
5.9603e-07 5.2654e-25
5.9902e-07 5.4668e-25
6.0202e-07 5.4664e-25
6.0504e-07 5.3378e-25
6.0808e-07 5.103e-25
6.1113e-07 4.8445e-25
6.1419e-07 4.6347e-25
6.1727e-07 4.4332e-25
6.2037e-07 4.2636e-25
6.2348e-07 4.1182e-25
6.2661e-07 4.0202e-25
6.2975e-07 3.9047e-25
6.3291e-07 3.6968e-25
6.3608e-07 3.4831e-25
6.3927e-07 3.2809e-25
6.4248e-07 3.0808e-25
6.457e-07 2.9999e-25
6.4894e-07 2.9449e-25
6.522e-07 2.7843e-25
6.5547e-07 2.6161e-25
6.5876e-07 2.411e-25
6.6206e-07 2.2224e-25
6.6538e-07 2.0748e-25
6.6872e-07 1.9131e-25
6.7207e-07 1.7681e-25
6.7544e-07 1.6462e-25
6.7883e-07 1.5426e-25
6.8224e-07 1.476e-25
6.8566e-07 1.4137e-25
6.891e-07 1.4466e-25
6.9255e-07 1.3295e-25
6.9603e-07 1.2342e-25
6.9952e-07 1.1562e-25
7.0303e-07 1.0657e-25
7.0655e-07 1.0094e-25
7.101e-07 9.5765e-26
7.1366e-07 9.2411e-26
7.1724e-07 1.0769e-25
7.2084e-07 9.6596e-26
7.2445e-07 9.0256e-26
7.2809e-07 8.3697e-26
7.3174e-07 7.6318e-26
7.3541e-07 6.7376e-26
7.391e-07 6.4229e-26
7.428e-07 6.0747e-26
7.4653e-07 6.0485e-26
7.5027e-07 5.6632e-26
7.5404e-07 4.8334e-26
7.5782e-07 4.48e-26
7.6162e-07 5.4514e-26
7.6544e-07 5.0195e-26
7.6928e-07 4.2845e-26
7.7314e-07 4.191e-26
7.7702e-07 4.5457e-26
7.8091e-07 4.5708e-26
7.8483e-07 4.1316e-26
7.8877e-07 4.0065e-26
7.9272e-07 3.5932e-26
7.967e-07 -0
8.007e-07 -0
8.0471e-07 -0
8.0875e-07 -0
8.1281e-07 -0
8.1688e-07 -0
8.2098e-07 -0
8.251e-07 -0
8.2924e-07 -0
8.334e-07 -0
8.3758e-07 -0
8.4178e-07 -0
8.46e-07 -0
8.5024e-07 -0
8.5451e-07 -0
8.5879e-07 -0
8.631e-07 -0
8.6743e-07 -0
8.7178e-07 -0
8.7615e-07 -0
8.8055e-07 -0
8.8496e-07 -0
8.894e-07 -0
8.9386e-07 -0
8.9835e-07 -0
9.0285e-07 -0
9.0738e-07 -0
9.1193e-07 -0
9.1651e-07 -0
9.211e-07 -0
9.2572e-07 -0
9.3037e-07 -0
9.3503e-07 -0
9.3972e-07 -0
9.4444e-07 -0
9.4918e-07 -0
9.5394e-07 -0
9.5872e-07 -0
9.6353e-07 -0
9.6836e-07 -0
9.7322e-07 -0
9.781e-07 -0
9.8301e-07 -0
9.8794e-07 -0
9.9289e-07 -0
9.9787e-07 -0
1.0029e-06 -0
1.0079e-06 -0
1.013e-06 -0
1.018e-06 -0
1.0232e-06 -0
1.0283e-06 -0
1.03e-06 -0

File: o3_uv_vis_T1_P0.txt
2.8e-07 3.8945e-22
2.814e-07 3.346e-22
2.8282e-07 2.952e-22
2.8423e-07 2.5415e-22
2.8566e-07 2.199e-22
2.8709e-07 1.9206e-22
2.8853e-07 1.5799e-22
2.8998e-07 1.3397e-22
2.9143e-07 1.1177e-22
2.929e-07 9.437e-23
2.9437e-07 7.7468e-23
2.9584e-07 6.2511e-23
2.9733e-07 5.1347e-23
2.9882e-07 4.2281e-23
3.0032e-07 3.4113e-23
3.0182e-07 2.7505e-23
3.0334e-07 2.1861e-23
3.0486e-07 1.7975e-23
3.0639e-07 1.5128e-23
3.0792e-07 1.165e-23
3.0947e-07 9.3899e-24
3.1102e-07 7.7547e-24
3.1258e-07 5.8478e-24
3.1415e-07 4.9931e-24
3.1572e-07 4.2219e-24
3.1731e-07 3.254e-24
3.189e-07 2.0275e-24
3.205e-07 2.0063e-24
3.2211e-07 1.8242e-24
3.2372e-07 7.7123e-25
3.2535e-07 1.2324e-24
3.2698e-07 5.1963e-25
3.2862e-07 5.8786e-25
3.3027e-07 4.3361e-25
3.3192e-07 2.8506e-25
3.3359e-07 3.4566e-25
3.3526e-07 9.8618e-26
3.3694e-07 2.0507e-25
3.3863e-07 6.5776e-26
3.4033e-07 1.3339e-25
3.4204e-07 2.4329e-26
3.4375e-07 7.2871e-26
3.4548e-07 2.4811e-26
3.4721e-07 2.9546e-26
3.4895e-07 6.5987e-27
3.507e-07 7.4418e-27
3.5246e-07 1.2356e-26
3.5423e-07 1.8216e-27
3.5601e-07 1.3933e-27
3.5779e-07 8.3494e-28
3.5959e-07 4.8047e-27
3.6139e-07 9.2214e-28
3.632e-07 3.0171e-28
3.6502e-07 4.1118e-28
3.6686e-07 9.7896e-29
3.687e-07 1.241e-28
3.7054e-07 2.6601e-29
3.724e-07 2.472e-29
3.7427e-07 1.0117e-28
3.7615e-07 4.0069e-27
3.7804e-07 3.3882e-28
3.7993e-07 8.3669e-29
3.8184e-07 1.0151e-28
3.8375e-07 9.9274e-29
3.8568e-07 7.4951e-29
3.8761e-07 4.8625e-28
3.8956e-07 1.279e-27
3.9151e-07 1.0171e-27
3.9347e-07 5.4654e-28
3.9545e-07 6.0398e-28
3.9743e-07 5.1326e-28
3.9942e-07 4.6817e-28
4.0143e-07 5.1431e-28
4.0344e-07 5.7642e-28
4.0546e-07 5.9934e-28
4.075e-07 1.1441e-27
4.0954e-07 1.6585e-27
4.116e-07 1.6728e-27
4.1366e-07 1.3894e-27
4.1574e-07 2.1333e-27
4.1782e-07 2.7226e-27
4.1992e-07 2.6332e-27
4.2202e-07 3.6648e-27
4.2414e-07 5.5669e-27
4.2627e-07 6.3941e-27
4.2841e-07 5.5637e-27
4.3055e-07 5.8172e-27
4.3271e-07 7.8017e-27
4.3488e-07 7.9798e-27
4.3707e-07 8.6376e-27
4.3926e-07 1.2374e-26
4.4146e-07 1.6727e-26
4.4368e-07 1.8192e-26
4.459e-07 1.5503e-26
4.4814e-07 1.5805e-26
4.5038e-07 1.9713e-26
4.5264e-07 2.0111e-26
4.5491e-07 2.1959e-26
4.572e-07 2.7135e-26
4.5949e-07 3.6532e-26
4.6179e-07 4.194e-26
4.6411e-07 3.7395e-26
4.6644e-07 3.4126e-26
4.6878e-07 4.051e-26
4.7113e-07 4.3773e-26
4.7349e-07 4.4051e-26
4.7587e-07 5.1283e-26
4.7825e-07 6.6425e-26
4.8065e-07 8.3064e-26
4.8306e-07 8.7843e-26
4.8549e-07 8.071e-26
4.8792e-07 7.7291e-26
4.9037e-07 8.4682e-26
4.9283e-07 8.873e-26
4.953e-07 9.1433e-26
4.9779e-07 1.038e-25
5.0028e-07 1.2801e-25
5.0279e-07 1.5789e-25
5.0531e-07 1.7409e-25
5.0785e-07 1.7185e-25
5.104e-07 1.6096e-25
5.1296e-07 1.6228e-25
5.1553e-07 1.7125e-25
5.1811e-07 1.7927e-25
5.2071e-07 1.8931e-25
5.2332e-07 2.0837e-25
5.2595e-07 2.3429e-25
5.2859e-07 2.6209e-25
5.3124e-07 2.8367e-25
5.339e-07 2.9231e-25
5.3658e-07 2.918e-25
5.3927e-07 2.9854e-25
5.4198e-07 3.2004e-25
5.447e-07 3.3374e-25
5.4743e-07 3.4258e-25
5.5017e-07 3.4855e-25
5.5293e-07 3.5536e-25
5.5571e-07 3.685e-25
5.5849e-07 3.9126e-25
5.613e-07 4.2066e-25
5.6411e-07 4.4587e-25
5.6694e-07 4.6638e-25
5.6978e-07 4.9648e-25
5.7264e-07 5.0718e-25
5.7551e-07 5.0753e-25
5.784e-07 4.9274e-25
5.813e-07 4.7684e-25
5.8422e-07 4.6761e-25
5.8715e-07 4.7412e-25
5.9009e-07 5.0445e-25
5.9305e-07 5.0815e-25
5.9603e-07 5.3533e-25
5.9902e-07 5.5465e-25
6.0202e-07 5.5169e-25
6.0504e-07 5.3703e-25
6.0808e-07 5.1283e-25
6.1113e-07 4.8784e-25
6.1419e-07 4.7278e-25
6.1727e-07 4.5509e-25
6.2037e-07 4.3944e-25
6.2348e-07 4.2548e-25
6.2661e-07 4.1777e-25
6.2975e-07 4.0747e-25
6.3291e-07 3.8614e-25
6.3608e-07 3.6408e-25
6.3927e-07 3.4368e-25
6.4248e-07 3.2346e-25
6.457e-07 3.1715e-25
6.4894e-07 3.1366e-25
6.522e-07 2.9685e-25
6.5547e-07 2.7962e-25
6.5876e-07 2.576e-25
6.6206e-07 2.3708e-25
6.6538e-07 2.2203e-25
6.6872e-07 2.0523e-25
6.7207e-07 1.9043e-25
6.7544e-07 1.7834e-25
6.7883e-07 1.6838e-25
6.8224e-07 1.6218e-25
6.8566e-07 1.5655e-25
6.891e-07 1.6266e-25
6.9255e-07 1.5078e-25
6.9603e-07 1.4184e-25
6.9952e-07 1.3462e-25
7.0303e-07 1.2535e-25
7.0655e-07 1.1967e-25
7.101e-07 1.1457e-25
7.1366e-07 1.1096e-25
7.1724e-07 1.3101e-25
7.2084e-07 1.1923e-25
7.2445e-07 1.1336e-25
7.2809e-07 1.0684e-25
7.3174e-07 9.9586e-26
7.3541e-07 8.8449e-26
7.391e-07 8.4686e-26
7.428e-07 7.9775e-26
7.4653e-07 7.8495e-26
7.5027e-07 7.4482e-26
7.5404e-07 6.6538e-26
7.5782e-07 6.46e-26
7.6162e-07 7.9888e-26
7.6544e-07 7.501e-26
7.6928e-07 6.4098e-26
7.7314e-07 6.1191e-26
7.7702e-07 6.3933e-26
7.8091e-07 6.4216e-26
7.8483e-07 6.1105e-26
7.8877e-07 6.2711e-26
7.9272e-07 5.951e-26
7.967e-07 -0
8.007e-07 -0
8.0471e-07 -0
8.0875e-07 -0
8.1281e-07 -0
8.1688e-07 -0
8.2098e-07 -0
8.251e-07 -0
8.2924e-07 -0
8.334e-07 -0
8.3758e-07 -0
8.4178e-07 -0
8.46e-07 -0
8.5024e-07 -0
8.5451e-07 -0
8.5879e-07 -0
8.631e-07 -0
8.6743e-07 -0
8.7178e-07 -0
8.7615e-07 -0
8.8055e-07 -0
8.8496e-07 -0
8.894e-07 -0
8.9386e-07 -0
8.9835e-07 -0
9.0285e-07 -0
9.0738e-07 -0
9.1193e-07 -0
9.1651e-07 -0
9.211e-07 -0
9.2572e-07 -0
9.3037e-07 -0
9.3503e-07 -0
9.3972e-07 -0
9.4444e-07 -0
9.4918e-07 -0
9.5394e-07 -0
9.5872e-07 -0
9.6353e-07 -0
9.6836e-07 -0
9.7322e-07 -0
9.781e-07 -0
9.8301e-07 -0
9.8794e-07 -0
9.9289e-07 -0
9.9787e-07 -0
1.0029e-06 -0
1.0079e-06 -0
1.013e-06 -0
1.018e-06 -0
1.0232e-06 -0
1.0283e-06 -0
1.03e-06 -0

File: o3_uv_vis_toa_T0_P0.txt
2.8e-07 3.8683e-22
2.814e-07 3.3321e-22
2.8282e-07 2.9888e-22
2.8423e-07 2.5812e-22
2.8566e-07 2.2304e-22
2.8709e-07 1.9467e-22
2.8853e-07 1.6046e-22
2.8998e-07 1.3624e-22
2.9143e-07 1.1351e-22
2.929e-07 9.6015e-23
2.9437e-07 7.9176e-23
2.9584e-07 6.4095e-23
2.9733e-07 5.2548e-23
2.9882e-07 4.3403e-23
3.0032e-07 3.5187e-23
3.0182e-07 2.8444e-23
3.0334e-07 2.2673e-23
3.0486e-07 1.8646e-23
3.0639e-07 1.5654e-23
3.0792e-07 1.2137e-23
3.0947e-07 9.8249e-24
3.1102e-07 8.1019e-24
3.1258e-07 6.1722e-24
3.1415e-07 5.2824e-24
3.1572e-07 4.4199e-24
3.1731e-07 3.4159e-24
3.189e-07 2.2035e-24
3.205e-07 2.1386e-24
3.2211e-07 1.8945e-24
3.2372e-07 8.8466e-25
3.2535e-07 1.2831e-24
3.2698e-07 5.8185e-25
3.2862e-07 6.4734e-25
3.3027e-07 4.575e-25
3.3192e-07 3.2651e-25
3.3359e-07 3.6589e-25
3.3526e-07 1.2177e-25
3.3694e-07 2.205e-25
3.3863e-07 8.1363e-26
3.4033e-07 1.4352e-25
3.4204e-07 3.3466e-26
3.4375e-07 7.6421e-26
3.4548e-07 3.2785e-26
3.4721e-07 3.2751e-26
3.4895e-07 1.031e-26
3.507e-07 1.0699e-26
3.5246e-07 1.5653e-26
3.5423e-07 3.7092e-27
3.5601e-07 2.9165e-27
3.5779e-07 2.4578e-27
3.5959e-07 5.6644e-27
3.6139e-07 1.8242e-27
3.632e-07 9.36e-28
3.6502e-07 1.2979e-27
3.6686e-07 7.0137e-28
3.687e-07 5.8672e-28
3.7054e-07 1.191e-27
3.724e-07 7.3625e-28
3.7427e-07 6.567e-28
3.7615e-07 1.0984e-27
3.7804e-07 6.9361e-28
3.7993e-07 5.31e-28
3.8184e-07 5.4334e-28
3.8375e-07 5.6234e-28
3.8568e-07 5.5798e-28
3.8761e-07 7.6231e-28
3.8956e-07 9.541e-28
3.9151e-07 1.0033e-27
3.9347e-07 9.886e-28
3.9545e-07 1.2075e-27
3.9743e-07 1.1851e-27
3.9942e-07 1.2222e-27
4.0143e-07 1.3593e-27
4.0344e-07 1.4476e-27
4.0546e-07 1.4769e-27
4.075e-07 2.1336e-27
4.0954e-07 2.7117e-27
4.116e-07 2.7284e-27
4.1366e-07 2.425e-27
4.1574e-07 3.2009e-27
4.1782e-07 3.8177e-27
4.1992e-07 3.7302e-27
4.2202e-07 4.7592e-27
4.2414e-07 6.6471e-27
4.2627e-07 7.4558e-27
4.2841e-07 6.6614e-27
4.3055e-07 6.8919e-27
4.3271e-07 8.8234e-27
4.3488e-07 9.0289e-27
4.3707e-07 9.6299e-27
4.3926e-07 1.3271e-26
4.4146e-07 1.7564e-26
4.4368e-07 1.8909e-26
4.459e-07 1.6284e-26
4.4814e-07 1.6592e-26
4.5038e-07 2.0371e-26
4.5264e-07 2.06e-26
4.5491e-07 2.1762e-26
4.572e-07 2.7726e-26
4.5949e-07 3.7029e-26
4.6179e-07 4.2549e-26
4.6411e-07 3.8344e-26
4.6644e-07 3.4997e-26
4.6878e-07 4.0865e-26
4.7113e-07 4.4051e-26
4.7349e-07 4.431e-26
4.7587e-07 5.1284e-26
4.7825e-07 6.6169e-26
4.8065e-07 8.2734e-26
4.8306e-07 8.8051e-26
4.8549e-07 8.1355e-26
4.8792e-07 7.766e-26
4.9037e-07 8.4775e-26
4.9283e-07 8.8932e-26
4.953e-07 9.1604e-26
4.9779e-07 1.0342e-25
5.0028e-07 1.2679e-25
5.0279e-07 1.5586e-25
5.0531e-07 1.7222e-25
5.0785e-07 1.7041e-25
5.104e-07 1.602e-25
5.1296e-07 1.6158e-25
5.1553e-07 1.7064e-25
5.1811e-07 1.7883e-25
5.2071e-07 1.8877e-25
5.2332e-07 2.0733e-25
5.2595e-07 2.3285e-25
5.2859e-07 2.605e-25
5.3124e-07 2.8226e-25
5.339e-07 2.9142e-25
5.3658e-07 2.9092e-25
5.3927e-07 2.9684e-25
5.4198e-07 3.1674e-25
5.447e-07 3.3075e-25
5.4743e-07 3.4017e-25
5.5017e-07 3.4676e-25
5.5293e-07 3.5426e-25
5.5571e-07 3.6744e-25
5.5849e-07 3.898e-25
5.613e-07 4.188e-25
5.6411e-07 4.4414e-25
5.6694e-07 4.6425e-25
5.6978e-07 4.9166e-25
5.7264e-07 5.0287e-25
5.7551e-07 5.0346e-25
5.784e-07 4.8957e-25
5.813e-07 4.7403e-25
5.8422e-07 4.6445e-25
5.8715e-07 4.6884e-25
5.9009e-07 4.9414e-25
5.9305e-07 4.992e-25
5.9603e-07 5.2608e-25
5.9902e-07 5.4662e-25
6.0202e-07 5.4671e-25
6.0504e-07 5.3379e-25
6.0808e-07 5.1031e-25
6.1113e-07 4.8445e-25
6.1419e-07 4.6346e-25
6.1727e-07 4.4329e-25
6.2037e-07 4.2636e-25
6.2348e-07 4.1183e-25
6.2661e-07 4.021e-25
6.2975e-07 3.8982e-25
6.3291e-07 3.6969e-25
6.3608e-07 3.4837e-25
6.3927e-07 3.2818e-25
6.4248e-07 3.0814e-25
6.457e-07 2.9994e-25
6.4894e-07 2.9395e-25
6.522e-07 2.7757e-25
6.5547e-07 2.612e-25
6.5876e-07 2.4111e-25
6.6206e-07 2.2227e-25
6.6538e-07 2.0753e-25
6.6872e-07 1.9132e-25
6.7207e-07 1.7681e-25
6.7544e-07 1.6462e-25
6.7883e-07 1.5428e-25
6.8224e-07 1.4764e-25
6.8566e-07 1.4144e-25
6.891e-07 1.4366e-25
6.9255e-07 1.3214e-25
6.9603e-07 1.2224e-25
6.9952e-07 1.1482e-25
7.0303e-07 1.0578e-25
7.0655e-07 1.0076e-25
7.101e-07 9.5694e-26
7.1366e-07 9.2383e-26
7.1724e-07 1.0499e-25
7.2084e-07 9.4084e-26
7.2445e-07 8.7801e-26
7.2809e-07 8.1347e-26
7.3174e-07 7.4772e-26
7.3541e-07 6.6902e-26
7.391e-07 6.397e-26
7.428e-07 6.0739e-26
7.4653e-07 6.0512e-26
7.5027e-07 5.6658e-26
7.5404e-07 4.8405e-26
7.5782e-07 4.4959e-26
7.6162e-07 5.2806e-26
7.6544e-07 4.9529e-26
7.6928e-07 4.2737e-26
7.7314e-07 4.1965e-26
7.7702e-07 4.5468e-26
7.8091e-07 4.5723e-26
7.8483e-07 4.1348e-26
7.8877e-07 3.989e-26
7.9272e-07 3.5738e-26
7.967e-07 -0
8.007e-07 -0
8.0471e-07 -0
8.0875e-07 -0
8.1281e-07 -0
8.1688e-07 -0
8.2098e-07 -0
8.251e-07 -0
8.2924e-07 -0
8.334e-07 -0
8.3758e-07 -0
8.4178e-07 -0
8.46e-07 -0
8.5024e-07 -0
8.5451e-07 -0
8.5879e-07 -0
8.631e-07 -0
8.6743e-07 -0
8.7178e-07 -0
8.7615e-07 -0
8.8055e-07 -0
8.8496e-07 -0
8.894e-07 -0
8.9386e-07 -0
8.9835e-07 -0
9.0285e-07 -0
9.0738e-07 -0
9.1193e-07 -0
9.1651e-07 -0
9.211e-07 -0
9.2572e-07 -0
9.3037e-07 -0
9.3503e-07 -0
9.3972e-07 -0
9.4444e-07 -0
9.4918e-07 -0
9.5394e-07 -0
9.5872e-07 -0
9.6353e-07 -0
9.6836e-07 -0
9.7322e-07 -0
9.781e-07 -0
9.8301e-07 -0
9.8794e-07 -0
9.9289e-07 -0
9.9787e-07 -0
1.0029e-06 -0
1.0079e-06 -0
1.013e-06 -0
1.018e-06 -0
1.0232e-06 -0
1.0283e-06 -0
1.03e-06 -0

File: o3_uv_vis_toa_T0_P1.txt
2.8e-07 3.8758e-22
2.814e-07 3.3378e-22
2.8282e-07 2.9899e-22
2.8423e-07 2.5829e-22
2.8566e-07 2.231e-22
2.8709e-07 1.9482e-22
2.8853e-07 1.6056e-22
2.8998e-07 1.3631e-22
2.9143e-07 1.1367e-22
2.929e-07 9.6097e-23
2.9437e-07 7.9206e-23
2.9584e-07 6.413e-23
2.9733e-07 5.2581e-23
2.9882e-07 4.3416e-23
3.0032e-07 3.5194e-23
3.0182e-07 2.8446e-23
3.0334e-07 2.2676e-23
3.0486e-07 1.8654e-23
3.0639e-07 1.5656e-23
3.0792e-07 1.2137e-23
3.0947e-07 9.8297e-24
3.1102e-07 8.1021e-24
3.1258e-07 6.1728e-24
3.1415e-07 5.2843e-24
3.1572e-07 4.4207e-24
3.1731e-07 3.416e-24
3.189e-07 2.2037e-24
3.205e-07 2.1397e-24
3.2211e-07 1.8953e-24
3.2372e-07 8.8482e-25
3.2535e-07 1.2833e-24
3.2698e-07 5.8196e-25
3.2862e-07 6.4771e-25
3.3027e-07 4.5768e-25
3.3192e-07 3.266e-25
3.3359e-07 3.6602e-25
3.3526e-07 1.2178e-25
3.3694e-07 2.2054e-25
3.3863e-07 8.1365e-26
3.4033e-07 1.4353e-25
3.4204e-07 3.3466e-26
3.4375e-07 7.6431e-26
3.4548e-07 3.2785e-26
3.4721e-07 3.2752e-26
3.4895e-07 1.031e-26
3.507e-07 1.0699e-26
3.5246e-07 1.5653e-26
3.5423e-07 3.7092e-27
3.5601e-07 2.9165e-27
3.5779e-07 2.4578e-27
3.5959e-07 5.6644e-27
3.6139e-07 1.8242e-27
3.632e-07 9.36e-28
3.6502e-07 1.2979e-27
3.6686e-07 7.0137e-28
3.687e-07 5.8672e-28
3.7054e-07 1.1909e-27
3.724e-07 7.3625e-28
3.7427e-07 6.567e-28
3.7615e-07 1.0984e-27
3.7804e-07 6.9361e-28
3.7993e-07 5.31e-28
3.8184e-07 5.4334e-28
3.8375e-07 5.6234e-28
3.8568e-07 5.5798e-28
3.8761e-07 7.6231e-28
3.8956e-07 9.5416e-28
3.9151e-07 1.0034e-27
3.9347e-07 9.8867e-28
3.9545e-07 1.2075e-27
3.9743e-07 1.1852e-27
3.9942e-07 1.2225e-27
4.0143e-07 1.3595e-27
4.0344e-07 1.4477e-27
4.0546e-07 1.4769e-27
4.075e-07 2.1337e-27
4.0954e-07 2.7117e-27
4.116e-07 2.7284e-27
4.1366e-07 2.425e-27
4.1574e-07 3.2009e-27
4.1782e-07 3.8176e-27
4.1992e-07 3.7303e-27
4.2202e-07 4.7592e-27
4.2414e-07 6.6471e-27
4.2627e-07 7.4557e-27
4.2841e-07 6.6615e-27
4.3055e-07 6.892e-27
4.3271e-07 8.8234e-27
4.3488e-07 9.0289e-27
4.3707e-07 9.6299e-27
4.3926e-07 1.3271e-26
4.4146e-07 1.756e-26
4.4368e-07 1.8901e-26
4.459e-07 1.6277e-26
4.4814e-07 1.6591e-26
4.5038e-07 2.0371e-26
4.5264e-07 2.06e-26
4.5491e-07 2.1762e-26
4.572e-07 2.7725e-26
4.5949e-07 3.7029e-26
4.6179e-07 4.2549e-26
4.6411e-07 3.8344e-26
4.6644e-07 3.4997e-26
4.6878e-07 4.0859e-26
4.7113e-07 4.4043e-26
4.7349e-07 4.4305e-26
4.7587e-07 5.1283e-26
4.7825e-07 6.6168e-26
4.8065e-07 8.2734e-26
4.8306e-07 8.805e-26
4.8549e-07 8.1342e-26
4.8792e-07 7.7649e-26
4.9037e-07 8.4769e-26
4.9283e-07 8.8931e-26
4.953e-07 9.1604e-26
4.9779e-07 1.0342e-25
5.0028e-07 1.2677e-25
5.0279e-07 1.558e-25
5.0531e-07 1.7213e-25
5.0785e-07 1.7028e-25
5.104e-07 1.6015e-25
5.1296e-07 1.6157e-25
5.1553e-07 1.7064e-25
5.1811e-07 1.7883e-25
5.2071e-07 1.8877e-25
5.2332e-07 2.0733e-25
5.2595e-07 2.3284e-25
5.2859e-07 2.6049e-25
5.3124e-07 2.8225e-25
5.339e-07 2.9142e-25
5.3658e-07 2.9091e-25
5.3927e-07 2.968e-25
5.4198e-07 3.1662e-25
5.447e-07 3.3066e-25
5.4743e-07 3.4008e-25
5.5017e-07 3.4673e-25
5.5293e-07 3.5425e-25
5.5571e-07 3.6744e-25
5.5849e-07 3.898e-25
5.613e-07 4.1879e-25
5.6411e-07 4.4413e-25
5.6694e-07 4.642e-25
5.6978e-07 4.9144e-25
5.7264e-07 5.0269e-25
5.7551e-07 5.033e-25
5.784e-07 4.8951e-25
5.813e-07 4.7399e-25
5.8422e-07 4.644e-25
5.8715e-07 4.6864e-25
5.9009e-07 4.9369e-25
5.9305e-07 4.988e-25
5.9603e-07 5.2569e-25
5.9902e-07 5.4631e-25
6.0202e-07 5.4659e-25
6.0504e-07 5.3378e-25
6.0808e-07 5.1031e-25
6.1113e-07 4.8445e-25
6.1419e-07 4.6346e-25
6.1727e-07 4.4329e-25
6.2037e-07 4.2636e-25
6.2348e-07 4.1183e-25
6.2661e-07 4.0198e-25
6.2975e-07 3.8954e-25
6.3291e-07 3.6954e-25
6.3608e-07 3.4827e-25
6.3927e-07 3.2809e-25
6.4248e-07 3.0805e-25
6.457e-07 2.9976e-25
6.4894e-07 2.9356e-25
6.522e-07 2.7731e-25
6.5547e-07 2.609e-25
6.5876e-07 2.4092e-25
6.6206e-07 2.2222e-25
6.6538e-07 2.0747e-25
6.6872e-07 1.913e-25
6.7207e-07 1.7681e-25
6.7544e-07 1.6462e-25
6.7883e-07 1.5427e-25
6.8224e-07 1.476e-25
6.8566e-07 1.4137e-25
6.891e-07 1.4332e-25
6.9255e-07 1.3203e-25
6.9603e-07 1.2207e-25
6.9952e-07 1.1456e-25
7.0303e-07 1.056e-25
7.0655e-07 1.0059e-25
7.101e-07 9.56e-26
7.1366e-07 9.2252e-26
7.1724e-07 1.0475e-25
7.2084e-07 9.39e-26
7.2445e-07 8.7549e-26
7.2809e-07 8.1155e-26
7.3174e-07 7.4591e-26
7.3541e-07 6.6726e-26
7.391e-07 6.3849e-26
7.428e-07 6.0678e-26
7.4653e-07 6.0482e-26
7.5027e-07 5.6633e-26
7.5404e-07 4.8333e-26
7.5782e-07 4.4799e-26
7.6162e-07 5.2864e-26
7.6544e-07 4.9386e-26
7.6928e-07 4.261e-26
7.7314e-07 4.1883e-26
7.7702e-07 4.5453e-26
7.8091e-07 4.5707e-26
7.8483e-07 4.1293e-26
7.8877e-07 3.9762e-26
7.9272e-07 3.5628e-26
7.967e-07 -0
8.007e-07 -0
8.0471e-07 -0
8.0875e-07 -0
8.1281e-07 -0
8.1688e-07 -0
8.2098e-07 -0
8.251e-07 -0
8.2924e-07 -0
8.334e-07 -0
8.3758e-07 -0
8.4178e-07 -0
8.46e-07 -0
8.5024e-07 -0
8.5451e-07 -0
8.5879e-07 -0
8.631e-07 -0
8.6743e-07 -0
8.7178e-07 -0
8.7615e-07 -0
8.8055e-07 -0
8.8496e-07 -0
8.894e-07 -0
8.9386e-07 -0
8.9835e-07 -0
9.0285e-07 -0
9.0738e-07 -0
9.1193e-07 -0
9.1651e-07 -0
9.211e-07 -0
9.2572e-07 -0
9.3037e-07 -0
9.3503e-07 -0
9.3972e-07 -0
9.4444e-07 -0
9.4918e-07 -0
9.5394e-07 -0
9.5872e-07 -0
9.6353e-07 -0
9.6836e-07 -0
9.7322e-07 -0
9.781e-07 -0
9.8301e-07 -0
9.8794e-07 -0
9.9289e-07 -0
9.9787e-07 -0
1.0029e-06 -0
1.0079e-06 -0
1.013e-06 -0
1.018e-06 -0
1.0232e-06 -0
1.0283e-06 -0
1.03e-06 -0