Folder: Flick-RT/material/gas/smooth_input

Note: material/gas/smooth_input/co2_uv_T1_P0.txt
2.8e-07 -0
2.8009e-07 -0
2.8019e-07 -0
2.8028e-07 -0
2.8037e-07 -0
2.8047e-07 -0
2.8056e-07 -0
2.8065e-07 -0
2.8075e-07 -0
2.8084e-07 -0
2.8094e-07 -0
2.8103e-07 -0
2.8112e-07 -0
2.8122e-07 -0
2.8131e-07 -0
2.814e-07 -0
2.815e-07 -0
2.8159e-07 -0
2.8169e-07 -0
2.8178e-07 -0
2.8187e-07 -0
2.8197e-07 -0
2.8206e-07 -0
2.8216e-07 -0
2.8225e-07 -0
2.8235e-07 -0
2.8244e-07 -0
2.8253e-07 -0
2.8263e-07 -0
2.8272e-07 -0
2.8282e-07 -0
2.8291e-07 -0
2.8301e-07 -0
2.831e-07 -0
2.8319e-07 -0
2.8329e-07 -0
2.8338e-07 -0
2.8348e-07 -0
2.8357e-07 -0
2.8367e-07 -0
2.8376e-07 -0
2.8386e-07 -0
2.8395e-07 -0
2.8405e-07 -0
2.8414e-07 -0
2.8424e-07 -0
2.8433e-07 -0
2.8443e-07 -0
2.8452e-07 -0
2.8462e-07 -0
2.8471e-07 -0
2.8481e-07 -0
2.849e-07 -0
2.85e-07 -0
2.8509e-07 -0
2.8519e-07 -0
2.8528e-07 -0
2.8538e-07 -0
2.8547e-07 -0
2.8557e-07 -0
2.8566e-07 -0
2.8576e-07 -0
2.8585e-07 -0
2.8595e-07 -0
2.8604e-07 -0
2.8614e-07 -0
2.8623e-07 -0
2.8633e-07 -0
2.8643e-07 -0
2.8652e-07 -0
2.8662e-07 -0
2.8671e-07 -0
2.8681e-07 -0
2.869e-07 -0
2.87e-07 -0
2.871e-07 -0
2.8719e-07 -0
2.8729e-07 -0
2.8738e-07 -0
2.8748e-07 -0
2.8757e-07 -0
2.8767e-07 -0
2.8777e-07 -0
2.8786e-07 -0
2.8796e-07 -0
2.8805e-07 -0
2.8815e-07 -0
2.8825e-07 -0
2.8834e-07 -0
2.8844e-07 -0
2.8854e-07 -0
2.8863e-07 -0
2.8873e-07 -0
2.8882e-07 -0
2.8892e-07 -0
2.8902e-07 -0
2.8911e-07 -0
2.8921e-07 -0
2.8931e-07 -0
2.894e-07 -0
2.895e-07 -0
2.896e-07 -0
2.8969e-07 -0
2.8979e-07 -0
2.8989e-07 -0
2.8998e-07 -0
2.9008e-07 -0
2.9018e-07 -0
2.9027e-07 -0
2.9037e-07 -0
2.9047e-07 -0
2.9056e-07 -0
2.9066e-07 -0
2.9076e-07 -0
2.9086e-07 -0
2.9095e-07 -0
2.9105e-07 -0
2.9115e-07 -0
2.9124e-07 -0
2.9134e-07 -0
2.9144e-07 -0
2.9154e-07 -0
2.9163e-07 -0
2.9173e-07 -0
2.9183e-07 -0
2.9192e-07 -0
2.9202e-07 -0
2.9212e-07 -0
2.9222e-07 -0
2.9231e-07 -0
2.9241e-07 -0
2.9251e-07 -0
2.9261e-07 -0
2.9271e-07 -0
2.928e-07 -0
2.929e-07 -0
2.93e-07 -0
2.931e-07 -0
2.9319e-07 -0
2.9329e-07 -0
2.9339e-07 -0
2.9349e-07 -0
2.9359e-07 -0
2.9368e-07 -0
2.9378e-07 -0
2.9388e-07 -0
2.9398e-07 -0
2.9408e-07 -0
2.9417e-07 -0
2.9427e-07 -0
2.9437e-07 -0
2.9447e-07 -0
2.9457e-07 -0
2.9466e-07 -0
2.9476e-07 -0
2.9486e-07 -0
2.9496e-07 -0
2.9506e-07 -0
2.9516e-07 -0
2.9526e-07 -0
2.9535e-07 -0
2.9545e-07 -0
2.9555e-07 -0
2.9565e-07 -0
2.9575e-07 -0
2.9585e-07 -0
2.9595e-07 -0
2.9604e-07 -0
2.9614e-07 -0
2.9624e-07 -0
2.9634e-07 -0
2.9644e-07 -0
2.9654e-07 -0
2.9664e-07 -0
2.9674e-07 -0
2.9684e-07 -0
2.9693e-07 -0
2.9703e-07 -0
2.9713e-07 -0
2.9723e-07 -0
2.9733e-07 -0
2.9743e-07 -0
2.9753e-07 -0
2.9763e-07 -0
2.9773e-07 -0
2.9783e-07 -0
2.9793e-07 -0
2.9803e-07 -0
2.9813e-07 -0
2.9823e-07 -0
2.9833e-07 -0
2.9842e-07 -0
2.9852e-07 -0
2.9862e-07 -0
2.9872e-07 -0
2.9882e-07 -0
2.9892e-07 -0
2.9902e-07 -0
2.9912e-07 -0
2.9922e-07 -0
2.9932e-07 -0
2.9942e-07 -0
2.9952e-07 -0
2.9962e-07 -0
2.9972e-07 -0
2.9982e-07 -0
2.9992e-07 -0
3.0002e-07 -0
3.0012e-07 -0
3.0022e-07 -0
3.0032e-07 -0
3.0042e-07 -0
3.0052e-07 -0
3.0062e-07 -0
3.0072e-07 -0
3.0082e-07 

Note: material/gas/smooth_input/h2o_uv_T0_P0.txt
2.8e-07 0
2.8094e-07 0
2.8189e-07 0
2.8284e-07 0
2.8379e-07 0
2.8475e-07 0
2.8571e-07 0
2.8667e-07 0
2.8764e-07 0
2.8861e-07 0
2.8958e-07 0
2.9056e-07 0
2.9154e-07 0
2.9252e-07 0
2.9351e-07 0
2.945e-07 0
2.9549e-07 0
2.9648e-07 0
2.9748e-07 0
2.9849e-07 0
2.9949e-07 0
3.005e-07 0
3.0151e-07 0
3.0253e-07 0
3.0355e-07 0
3.0457e-07 0
3.056e-07 0
3.0663e-07 0
3.0766e-07 0
3.087e-07 0
3.0974e-07 0
3.1078e-07 0
3.1183e-07 0
3.1288e-07 0
3.1394e-07 0
3.15e-07 0
3.1606e-07 0
3.1712e-07 0
3.1819e-07 0
3.1926e-07 0
3.2034e-07 0
3.2142e-07 0
3.225e-07 0
3.2359e-07 0
3.2468e-07 0
3.2578e-07 0
3.2687e-07 0
3.2798e-07 0
3.2908e-07 0
3.3019e-07 0
3.313e-07 0
3.3242e-07 0
3.3354e-07 0
3.3466e-07 0
3.3579e-07 0
3.3692e-07 0
3.3806e-07 0
3.392e-07 0
3.4034e-07 0
3.4149e-07 0
3.4264e-07 0
3.438e-07 0
3.4495e-07 0
3.4612e-07 0
3.4728e-07 0
3.4845e-07 0
3.4963e-07 0
3.5081e-07 0
3.5199e-07 0
3.5318e-07 0
3.5437e-07 0
3.5556e-07 0
3.5676e-07 0
3.5796e-07 0
3.5917e-07 0
3.6038e-07 0
3.6159e-07 0
3.6281e-07 0
3.6403e-07 0
3.6526e-07 0
3.6649e-07 0
3.6773e-07 0
3.6897e-07 0
3.7021e-07 0
3.7146e-07 0
3.7271e-07 0
3.7397e-07 0
3.7523e-07 0
3.7649e-07 0
3.7776e-07 0
3.7903e-07 0
3.8031e-07 0
3.8159e-07 0
3.8288e-07 3.135e-36
3.8417e-07 7.3078e-35
3.8547e-07 2.2302e-34
3.8676e-07 3.9209e-34
3.8807e-07 8.5382e-33
3.8938e-07 2.8272e-32
3.9069e-07 4.9897e-32
3.9201e-07 5.3912e-32
3.9333e-07 4.6615e-32
3.9465e-07 7.8593e-32
3.9598e-07 2.1566e-31
3.9732e-07 3.7446e-31
3.9866e-07 3.9396e-31
4e-07 3.0674e-31

Note: material/gas/smooth_input/h2o_uv_T1_P0.txt
2.8e-07 0
2.8094e-07 0
2.8189e-07 0
2.8284e-07 0
2.8379e-07 0
2.8475e-07 0
2.8571e-07 0
2.8667e-07 0
2.8764e-07 0
2.8861e-07 0
2.8958e-07 0
2.9056e-07 0
2.9154e-07 0
2.9252e-07 0
2.9351e-07 0
2.945e-07 0
2.9549e-07 0
2.9648e-07 0
2.9748e-07 0
2.9849e-07 0
2.9949e-07 0
3.005e-07 0
3.0151e-07 0
3.0253e-07 0
3.0355e-07 0
3.0457e-07 0
3.056e-07 0
3.0663e-07 0
3.0766e-07 0
3.087e-07 0
3.0974e-07 0
3.1078e-07 0
3.1183e-07 0
3.1288e-07 0
3.1394e-07 0
3.15e-07 0
3.1606e-07 0
3.1712e-07 0
3.1819e-07 0
3.1926e-07 0
3.2034e-07 0
3.2142e-07 0
3.225e-07 0
3.2359e-07 0
3.2468e-07 0
3.2578e-07 0
3.2687e-07 0
3.2798e-07 0
3.2908e-07 0
3.3019e-07 0
3.313e-07 0
3.3242e-07 0
3.3354e-07 0
3.3466e-07 0
3.3579e-07 0
3.3692e-07 0
3.3806e-07 0
3.392e-07 0
3.4034e-07 0
3.4149e-07 0
3.4264e-07 0
3.438e-07 0
3.4495e-07 0
3.4612e-07 0
3.4728e-07 0
3.4845e-07 0
3.4963e-07 0
3.5081e-07 0
3.5199e-07 0
3.5318e-07 0
3.5437e-07 0
3.5556e-07 0
3.5676e-07 0
3.5796e-07 0
3.5917e-07 0
3.6038e-07 0
3.6159e-07 0
3.6281e-07 0
3.6403e-07 0
3.6526e-07 0
3.6649e-07 0
3.6773e-07 0
3.6897e-07 0
3.7021e-07 0
3.7146e-07 0
3.7271e-07 0
3.7397e-07 0
3.7523e-07 0
3.7649e-07 0
3.7776e-07 0
3.7903e-07 0
3.8031e-07 0
3.8159e-07 0
3.8288e-07 3.1228e-36
3.8417e-07 7.2794e-35
3.8547e-07 2.2189e-34
3.8676e-07 3.7737e-34
3.8807e-07 8.5015e-33
3.8938e-07 2.8036e-32
3.9069e-07 5.0336e-32
3.9201e-07 5.3732e-32
3.9333e-07 4.6605e-32
3.9465e-07 7.8479e-32
3.9598e-07 2.1534e-31
3.9732e-07 3.7408e-31
3.9866e-07 3.9354e-31
4e-07 3.0635e-31

Note: material/gas/smooth_input/o2_uv_T0_P0.txt
2.8e-07 1.4932e-31
2.8094e-07 7.2047e-32
2.8189e-07 1.9488e-32
2.8284e-07 4.1684e-32
2.8379e-07 4.1602e-33
2.8475e-07 7.8851e-32
2.8571e-07 6.9185e-32
2.8667e-07 4.0206e-33
2.8764e-07 1.1489e-32
2.8861e-07 1.7367e-33
2.8958e-07 3.8779e-34
2.9056e-07 5.3533e-34
2.9154e-07 1.1584e-33
2.9252e-07 2.1118e-32
2.9351e-07 9.9553e-33
2.945e-07 2.0947e-34
2.9549e-07 1.9276e-34
2.9648e-07 1.0635e-37
2.9748e-07 8.5002e-40
2.9849e-07 6.608e-42
2.9949e-07 0
3.005e-07 0
3.0151e-07 0
3.0253e-07 0
3.0355e-07 0
3.0457e-07 0
3.056e-07 0
3.0663e-07 0
3.0766e-07 0
3.087e-07 0
3.0974e-07 0
3.1078e-07 0
3.1183e-07 0
3.1288e-07 0
3.1394e-07 0
3.15e-07 0
3.1606e-07 0
3.1712e-07 0
3.1819e-07 0
3.1926e-07 0
3.2034e-07 0
3.2142e-07 0
3.225e-07 0
3.2359e-07 0
3.2468e-07 0
3.2578e-07 0
3.2687e-07 0
3.2798e-07 0
3.2908e-07 0
3.3019e-07 0
3.313e-07 0
3.3242e-07 0
3.3354e-07 0
3.3466e-07 0
3.3579e-07 0
3.3692e-07 0
3.3806e-07 0
3.392e-07 0
3.4034e-07 0
3.4149e-07 0
3.4264e-07 0
3.438e-07 0
3.4495e-07 0
3.4612e-07 0
3.4728e-07 0
3.4845e-07 0
3.4963e-07 0
3.5081e-07 0
3.5199e-07 0
3.5318e-07 0
3.5437e-07 0
3.5556e-07 0
3.5676e-07 0
3.5796e-07 0
3.5917e-07 0
3.6038e-07 0
3.6159e-07 0
3.6281e-07 0
3.6403e-07 0
3.6526e-07 0
3.6649e-07 0
3.6773e-07 0
3.6897e-07 0
3.7021e-07 0
3.7146e-07 0
3.7271e-07 0
3.7397e-07 0
3.7523e-07 0
3.7649e-07 0
3.7776e-07 0
3.7903e-07 0
3.8031e-07 0
3.8159e-07 0
3.8288e-07 0
3.8417e-07 0
3.8547e-07 0
3.8676e-07 0
3.8807e-07 0
3.8938e-07 0
3.9069e-07 0
3.9201e-07 0
3.9333e-07 0
3.9465e-07 0
3.9598e-07 0
3.9732e-07 0
3.9866e-07 0
4e-07 0

File: co2_uv_vis_T0_P0.txt
2.8e-07 -0
2.8141e-07 -0
2.8282e-07 -0
2.8424e-07 -0
2.8567e-07 -0
2.8711e-07 -0
2.8855e-07 -0
2.9e-07 -0
2.9145e-07 -0
2.9292e-07 -0
2.9439e-07 -0
2.9587e-07 -0
2.9736e-07 -0
2.9885e-07 -0
3.0035e-07 -0
3.0186e-07 -0
3.0338e-07 -0
3.049e-07 -0
3.0643e-07 -0
3.0797e-07 -0
3.0952e-07 -0
3.1108e-07 -0
3.1264e-07 -0
3.1421e-07 -0
3.1579e-07 -0
3.1738e-07 -0
3.1897e-07 -0
3.2057e-07 -0
3.2218e-07 -0
3.238e-07 -0
3.2543e-07 -0
3.2707e-07 -0
3.2871e-07 -0
3.3036e-07 -0
3.3202e-07 -0
3.3369e-07 -0
3.3537e-07 -0
3.3705e-07 -0
3.3874e-07 -0
3.4045e-07 -0
3.4216e-07 -0
3.4388e-07 -0
3.456e-07 -0
3.4734e-07 -0
3.4909e-07 -0
3.5084e-07 -0
3.526e-07 -0
3.5437e-07 -0
3.5615e-07 -0
3.5794e-07 -0
3.5974e-07 -0
3.6155e-07 -0
3.6337e-07 -0
3.6519e-07 -0
3.6703e-07 -0
3.6887e-07 -0
3.7073e-07 -0
3.7259e-07 -0
3.7446e-07 -0
3.7634e-07 -0
3.7823e-07 -0
3.8013e-07 -0
3.8204e-07 -0
3.8396e-07 -0
3.8589e-07 -0
3.8783e-07 -0
3.8978e-07 -0
3.9174e-07 -0
3.9371e-07 -0
3.9568e-07 -0
3.9767e-07 -0
3.9967e-07 -0
4.0168e-07 -0
4.037e-07 -0
4.0573e-07 -0
4.0776e-07 -0
4.0981e-07 -0
4.1187e-07 -0
4.1394e-07 -0
4.1602e-07 -0
4.1811e-07 -0
4.2021e-07 -0
4.2232e-07 -0
4.2445e-07 -0
4.2658e-07 -0
4.2872e-07 -0
4.3088e-07 -0
4.3304e-07 -0
4.3522e-07 -0
4.374e-07 -0
4.396e-07 -0
4.4181e-07 -0
4.4403e-07 -0
4.4626e-07 -0
4.485e-07 -0
4.5076e-07 -0
4.5302e-07 -0
4.553e-07 -0
4.5759e-07 -0
4.5989e-07 -0
4.622e-07 -0
4.6452e-07 -0
4.6685e-07 -0
4.692e-07 -0
4.7156e-07 -0
4.7393e-07 -0
4.7631e-07 -0
4.787e-07 -0
4.8111e-07 -0
4.8352e-07 -0
4.8595e-07 -0
4.8839e-07 -0
4.9085e-07 -0
4.9331e-07 -0
4.9579e-07 -0
4.9828e-07 3.3076e-39
5.0079e-07 4.1244e-37
5.033e-07 1.2406e-34
5.0583e-07 8.6423e-39
5.0837e-07 8.1051e-40
5.1093e-07 9.8385e-40
5.135e-07 9.7245e-39
5.1608e-07 1.1673e-34
5.1867e-07 4.3263e-36
5.2127e-07 3.9461e-36
5.2389e-07 7.3073e-35
5.2653e-07 6.1405e-39
5.2917e-07 3.8386e-39
5.3183e-07 1.2353e-36
5.345e-07 4.6287e-35
5.3719e-07 1.1172e-38
5.3989e-07 9.0532e-38
5.426e-07 1.3435e-34
5.4533e-07 2.9318e-35
5.4807e-07 2.8322e-35
5.5082e-07 1.0956e-34
5.5359e-07 1.9649e-38
5.5637e-07 2.0823e-35
5.5917e-07 2.6626e-35
5.6198e-07 2.5822e-38
5.648e-07 1.7365e-34
5.6764e-07 5.9073e-37
5.7049e-07 4.3961e-39
5.7336e-07 4.7069e-39
5.7624e-07 4.5313e-38
5.7913e-07 1.2872e-34
5.8204e-07 2.4408e-34
5.8497e-07 1.5836e-34
5.8791e-07 2.3456e-34
5.9086e-07 6.3621e-38
5.9383e-07 2.8614e-38
5.9681e-07 1.9754e-34
5.9981e-07 2.3784e-35
6.0282e-07 2.9242e-35
6.0585e-07 5.0521e-34
6.089e-07 5.1093e-34
6.1196e-07 1.1624e-34
6.1503e-07 8.4306e-35
6.1812e-07 9.7181e-38
6.2123e-07 1.3403e-34
6.2435e-07 1.3039e-37
6.2749e-07 7.8341e-34
6.3064e-07 4.269e-34
6.3381e-07 5.7882e-35
6.3699e-07 2.8466e-38
6.4019e-07 1.8501e-36
6.4341e-07 1.6166e-34
6.4664e-07 2.2899e-37
6.4989e-07 1.3644e-33
6.5316e-07 5.0311e-34
6.5644e-07 7.4198e-33
6.5974e-07 1.8451e-33
6.6305e-07 1.6103e-33
6.6638e-07 1.6876e-34
6.6973e-07 2.1157e-34
6.731e-07 6.901e-37
6.7648e-07 1.6366e-38
6.7988e-07 1.5821e-37
6.8329e-07 1.08e-34
6.8673e-07 2.4328e-38
6.9018e-07 1.7622e-38
6.9365e-07 4.7778e-35
6.9713e-07 1.5092e-34
7.0063e-07 1.2271e-37
7.0415e-07 5.7994e-37
7.0769e-07 3.0096e-34
7.1125e-07 1.2111e-32
7.1482e-07 1.7984e-32
7.1841e-07 2.3607e-32
7.2202e-07 7.0113e-33
7.2565e-07 2.7462e-33
7.293e-07 1.3076e-33
7.3296e-07 2.0653e-34
7.3664e-07 1.0464e-34
7.4035e-07 1.3872e-34
7.4407e-07 2.409e-38
7.478e-07 7.1884e-39
7.5156e-07 1.0502e-38
7.5534e-07 4.1048e-37
7.5913e-07 2.4155e-34
7.6295e-07 2.9636e-38
7.6678e-07 2.0453e-38
7.7063e-07 7.1918e-36
7.7451e-07 2.539e-34
7.784e-07 3.9487e-35
7.8231e-07 2.0925e-31
7.8624e-07 6.7717e-32
7.9019e-07 1.0871e-31
7.9416e-07 1.8741e-32
7.9815e-07 3.2769e-33
8.0216e-07 5.5381e-33
8.0619e-07 2.0654e-33
8.1024e-07 1.9099e-33
8.1431e-07 4.5219e-34
8.1841e-07 1.087e-33
8.2252e-07 3.4381e-33
8.2665e-07 4.5166e-34
8.308e-07 9.5223e-33
8.3498e-07 7.4193e-34
8.3917e-07 3.7783e-33
8.4339e-07 3.1503e-34
8.4763e-07 2.4981e-37
8.5189e-07 7.0767e-34
8.5617e-07 2.9901e-35
8.6047e-07 5.591e-35
8.6479e-07 2.1348e-34
8.6914e-07 7.0606e-31
8.735e-07 2.6793e-31
8.7789e-07 4.5587e-32
8.823e-07 4.3529e-33
8.8674e-07 1.1588e-33
8.9119e-07 4.2524e-33
8.9567e-07 2.1938e-32
9.0017e-07 3.7661e-33
9.0469e-07 3.9257e-35
9.0924e-07 5.5097e-32
9.1381e-07 1.7913e-32
9.184e-07 1.0209e-32
9.2301e-07 3.6615e-31
9.2765e-07 4.1297e-32
9.3231e-07 2.9048e-31
9.37e-07 1.5226e-31
9.4171e-07 1.0309e-32
9.4644e-07 3.2528e-32
9.5119e-07 5.5269e-33
9.5597e-07 2.4841e-33
9.6078e-07 3.1225e-34
9.656e-07 5.0918e-33
9.7046e-07 1.4857e-33
9.7533e-07 5.6078e-34
9.8023e-07 2.9802e-32
9.8516e-07 7.154e-33
9.9011e-07 3.2601e-33
9.9508e-07 1.7049e-32
1.0001e-06 2.2613e-33
1.0051e-06 3.6661e-36
1.0102e-06 4.5442e-33
1.0152e-06 1.3697e-32
1.0203e-06 1.221e-33
1.0255e-06 2.6848e-34
1.0306e-06 2.3615e-33
1.0358e-06 1.552e-30
1.041e-06 1.5682e-30
1.0462e-06 5.2204e-31
1.0515e-06 6.9568e-30
1.0568e-06 1.1198e-30
1.0621e-06 8.575e-31
1.0674e-06 9.781e-31
1.0728e-06 3.5901e-31
1.0782e-06 1.5639e-31
1.0836e-06 2.5512e-32
1.089e-06 3.8465e-32
1.0945e-06 1.0675e-31
1.1e-06 2.764e-32

File: co2_uv_vis_T0_P1.txt
2.8e-07 0
2.8131e-07 0
2.8263e-07 0
2.8395e-07 0
2.8528e-07 0
2.8662e-07 0
2.8796e-07 0
2.8931e-07 0
2.9066e-07 0
2.9202e-07 0
2.9339e-07 0
2.9476e-07 0
2.9614e-07 0
2.9753e-07 0
2.9892e-07 0
3.0032e-07 0
3.0173e-07 0
3.0314e-07 0
3.0456e-07 0
3.0598e-07 0
3.0742e-07 0
3.0885e-07 0
3.103e-07 0
3.1175e-07 0
3.1321e-07 0
3.1468e-07 0
3.1615e-07 0
3.1763e-07 0
3.1912e-07 0
3.2061e-07 0
3.2211e-07 0
3.2362e-07 0
3.2514e-07 0
3.2666e-07 0
3.2819e-07 0
3.2972e-07 0
3.3127e-07 0
3.3282e-07 0
3.3438e-07 0
3.3594e-07 0
3.3752e-07 0
3.391e-07 0
3.4068e-07 0
3.4228e-07 0
3.4388e-07 0
3.4549e-07 0
3.4711e-07 0
3.4873e-07 0
3.5036e-07 0
3.52e-07 0
3.5365e-07 0
3.5531e-07 0
3.5697e-07 0
3.5864e-07 0
3.6032e-07 0
3.6201e-07 0
3.637e-07 0
3.6541e-07 0
3.6712e-07 0
3.6884e-07 0
3.7056e-07 0
3.723e-07 0
3.7404e-07 0
3.7579e-07 0
3.7755e-07 0
3.7932e-07 0
3.8109e-07 0
3.8288e-07 0
3.8467e-07 0
3.8647e-07 0
3.8828e-07 0
3.901e-07 0
3.9192e-07 0
3.9376e-07 0
3.956e-07 0
3.9745e-07 0
3.9931e-07 0
4.0118e-07 0
4.0306e-07 0
4.0495e-07 0
4.0684e-07 0
4.0875e-07 0
4.1066e-07 0
4.1258e-07 0
4.1452e-07 0
4.1646e-07 0
4.1841e-07 0
4.2037e-07 0
4.2233e-07 0
4.2431e-07 0
4.263e-07 0
4.2829e-07 0
4.303e-07 0
4.3231e-07 0
4.3434e-07 0
4.3637e-07 0
4.3841e-07 0
4.4046e-07 0
4.4253e-07 0
4.446e-07 0
4.4668e-07 0
4.4877e-07 0
4.5087e-07 0
4.5298e-07 0
4.551e-07 0
4.5723e-07 0
4.5937e-07 0
4.6152e-07 0
4.6368e-07 0
4.6586e-07 0
4.6804e-07 0
4.7023e-07 0
4.7243e-07 0
4.7464e-07 0
4.7686e-07 0
4.7909e-07 0
4.8134e-07 0
4.8359e-07 0
4.8585e-07 0
4.8813e-07 0
4.9041e-07 0
4.9271e-07 0
4.9502e-07 0
4.9733e-07 5.9443e-40
4.9966e-07 7.1884e-39
5.02e-07 6.222e-35
5.0435e-07 3.4469e-38
5.0671e-07 4.2189e-39
5.0909e-07 2.0441e-41
5.1147e-07 1.485e-39
5.1386e-07 9.9901e-39
5.1627e-07 2.032e-34
5.1869e-07 2.8151e-38
5.2111e-07 2.2255e-38
5.2355e-07 7.2426e-35
5.26e-07 7.1338e-39
5.2847e-07 3.2499e-39
5.3094e-07 8.4251e-39
5.3343e-07 1.5149e-34
5.3592e-07 1.3875e-38
5.3843e-07 1.1159e-38
5.4095e-07 1.1367e-35
5.4349e-07 6.254e-35
5.4603e-07 7.6145e-35
5.4859e-07 9.8987e-37
5.5115e-07 5.0068e-35
5.5373e-07 1.47e-38
5.5633e-07 1.2091e-36
5.5893e-07 4.6221e-36
5.6155e-07 1.5658e-38
5.6418e-07 1.1575e-34
5.6682e-07 6.5202e-36
5.6947e-07 6.1239e-39
5.7214e-07 1.9472e-39
5.7482e-07 7.8012e-39
5.7751e-07 3.5327e-36
5.8021e-07 1.0344e-36
5.8293e-07 7.4333e-34
5.8565e-07 8.153e-35
5.884e-07 3.7537e-34
5.9115e-07 3.2708e-38
5.9392e-07 2.2769e-38
5.967e-07 2.1309e-34
5.9949e-07 3.6724e-35
6.023e-07 1.0331e-37
6.0512e-07 7.2057e-34
6.0795e-07 1.1456e-36
6.108e-07 3.7712e-34
6.1366e-07 9.5913e-35
6.1653e-07 1.9301e-35
6.1942e-07 3.567e-36
6.2232e-07 4.8528e-37
6.2523e-07 1.6653e-37
6.2816e-07 1.5023e-33
6.311e-07 2.5647e-34
6.3405e-07 1.304e-37
6.3702e-07 2.2385e-38
6.4e-07 4.2994e-38
6.43e-07 3.7648e-34
6.4601e-07 1.2761e-37
6.4903e-07 5.8279e-35
6.5207e-07 1.2795e-33
6.5512e-07 2.3133e-33
6.5819e-07 2.8374e-33
6.6127e-07 4.811e-33
6.6437e-07 5.0304e-34
6.6748e-07 1.2256e-34
6.706e-07 2.7202e-34
6.7374e-07 3.1736e-38
6.769e-07 1.3571e-38
6.8006e-07 3.3104e-38
6.8325e-07 2.0801e-34
6.8645e-07 2.0182e-38
6.8966e-07 1.3327e-38
6.9289e-07 5.2635e-38
6.9613e-07 4.6942e-34
6.9939e-07 4.2631e-38
7.0267e-07 3.0838e-37
7.0595e-07 2.4043e-36
7.0926e-07 2.8041e-34
7.1258e-07 7.7755e-33
7.1592e-07 5.9894e-32
7.1927e-07 8.8451e-33
7.2263e-07 1.2991e-32
7.2602e-07 1.1293e-33
7.2942e-07 1.5308e-33
7.3283e-07 1.6375e-34
7.3626e-07 1.0967e-34
7.3971e-07 2.7647e-34
7.4317e-07 3.0569e-38
7.4665e-07 5.7527e-39
7.5015e-07 7.6351e-39
7.5366e-07 1.7176e-38
7.5719e-07 3.8777e-35
7.6073e-07 6.6103e-36
7.6429e-07 1.8034e-38
7.6787e-07 2.0664e-38
7.7146e-07 1.2416e-35
7.7508e-07 7.0139e-35
7.787e-07 3.4886e-35
7.8235e-07 3.3319e-31
7.8601e-07 5.189e-32
7.8969e-07 1.1645e-31
7.9339e-07 2.0282e-32
7.971e-07 6.2503e-33
8.0083e-07 8.6332e-34
8.0458e-07 4.5625e-33
8.0835e-07 4.758e-34
8.1213e-07 2.4463e-33
8.1594e-07 6.2348e-37
8.1976e-07 4.1575e-33
8.2359e-07 1.3882e-33
8.2745e-07 1.3032e-34
8.3132e-07 1.0692e-32
8.3522e-07 2.4196e-34
8.3913e-07 5.2495e-33
8.4305e-07 3.9488e-34
8.47e-07 2.2061e-37
8.5097e-07 2.431e-34
8.5495e-07 1.1451e-34
8.5895e-07 4.0475e-35
8.6297e-07 1.6515e-34
8.6701e-07 4.9806e-34
8.7107e-07 5.8933e-31
8.7515e-07 1.1555e-31
8.7925e-07 2.0088e-32
8.8336e-07 1.6978e-33
8.875e-07 5.8814e-34
8.9165e-07 1.8835e-34
8.9583e-07 2.0435e-32
9.0002e-07 3.6172e-33
9.0423e-07 3.6108e-35
9.0847e-07 4.6459e-32
9.1272e-07 3.0133e-32
9.1699e-07 1.4642e-33
9.2129e-07 5.0274e-31
9.256e-07 1.1718e-31
9.2993e-07 1.5326e-32
9.3429e-07 2.3826e-31
9.3866e-07 2.5776e-32
9.4305e-07 5.0305e-33
9.4747e-07 1.9982e-32
9.5e-07 8.7605e-33

File: co2_uv_vis_T1_P0.txt
2.8e-07 0
2.8131e-07 0
2.8263e-07 0
2.8395e-07 0
2.8528e-07 0
2.8662e-07 0
2.8796e-07 0
2.8931e-07 0
2.9066e-07 0
2.9202e-07 0
2.9339e-07 0
2.9476e-07 0
2.9614e-07 0
2.9753e-07 0
2.9892e-07 0
3.0032e-07 0
3.0173e-07 0
3.0314e-07 0
3.0456e-07 0
3.0598e-07 0
3.0742e-07 0
3.0885e-07 0
3.103e-07 0
3.1175e-07 0
3.1321e-07 0
3.1468e-07 0
3.1615e-07 0
3.1763e-07 0
3.1912e-07 0
3.2061e-07 0
3.2211e-07 0
3.2362e-07 0
3.2514e-07 0
3.2666e-07 0
3.2819e-07 0
3.2972e-07 0
3.3127e-07 0
3.3282e-07 0
3.3438e-07 0
3.3594e-07 0
3.3752e-07 0
3.391e-07 0
3.4068e-07 0
3.4228e-07 0
3.4388e-07 0
3.4549e-07 0
3.4711e-07 0
3.4873e-07 0
3.5036e-07 0
3.52e-07 0
3.5365e-07 0
3.5531e-07 0
3.5697e-07 0
3.5864e-07 0
3.6032e-07 0
3.6201e-07 0
3.637e-07 0
3.6541e-07 0
3.6712e-07 0
3.6884e-07 0
3.7056e-07 0
3.723e-07 0
3.7404e-07 0
3.7579e-07 0
3.7755e-07 0
3.7932e-07 0
3.8109e-07 0
3.8288e-07 0
3.8467e-07 0
3.8647e-07 0
3.8828e-07 0
3.901e-07 0
3.9192e-07 0
3.9376e-07 0
3.956e-07 0
3.9745e-07 0
3.9931e-07 0
4.0118e-07 0
4.0306e-07 0
4.0495e-07 0
4.0684e-07 0
4.0875e-07 0
4.1066e-07 0
4.1258e-07 0
4.1452e-07 0
4.1646e-07 0
4.1841e-07 0
4.2037e-07 0
4.2233e-07 0
4.2431e-07 0
4.263e-07 0
4.2829e-07 0
4.303e-07 0
4.3231e-07 0
4.3434e-07 0
4.3637e-07 0
4.3841e-07 0
4.4046e-07 0
4.4253e-07 0
4.446e-07 0
4.4668e-07 0
4.4877e-07 0
4.5087e-07 0
4.5298e-07 0
4.551e-07 0
4.5723e-07 0
4.5937e-07 0
4.6152e-07 0
4.6368e-07 0
4.6586e-07 0
4.6804e-07 0
4.7023e-07 0
4.7243e-07 0
4.7464e-07 0
4.7686e-07 0
4.7909e-07 0
4.8134e-07 0
4.8359e-07 0
4.8585e-07 0
4.8813e-07 0
4.9041e-07 0
4.9271e-07 0
4.9502e-07 0
4.9733e-07 7.2912e-40
4.9966e-07 1.1453e-38
5.02e-07 8.1833e-35
5.0435e-07 5.5335e-38
5.0671e-07 6.4395e-39
5.0909e-07 3.5765e-42
5.1147e-07 2.455e-39
5.1386e-07 1.5735e-38
5.1627e-07 2.5888e-34
5.1869e-07 4.5024e-38
5.2111e-07 3.5568e-38
5.2355e-07 9.6873e-35
5.26e-07 1.1168e-38
5.2847e-07 5.2564e-39
5.3094e-07 1.3566e-38
5.3343e-07 2.0095e-34
5.3592e-07 2.1985e-38
5.3843e-07 1.7946e-38
5.4095e-07 1.5304e-35
5.4349e-07 8.4405e-35
5.4603e-07 1.0197e-34
5.4859e-07 1.482e-36
5.5115e-07 6.6321e-35
5.5373e-07 2.3545e-38
5.5633e-07 1.4938e-36
5.5893e-07 6.0807e-36
5.6155e-07 2.5267e-38
5.6418e-07 1.5284e-34
5.6682e-07 7.9448e-36
5.6947e-07 9.5833e-39
5.7214e-07 3.2077e-39
5.7482e-07 1.2727e-38
5.7751e-07 5.3572e-36
5.8021e-07 1.5637e-36
5.8293e-07 9.6863e-34
5.8565e-07 1.1042e-34
5.884e-07 5.0522e-34
5.9115e-07 5.3003e-38
5.9392e-07 3.6434e-38
5.967e-07 2.885e-34
5.9949e-07 4.9716e-35
6.023e-07 1.6459e-37
6.0512e-07 9.6504e-34
6.0795e-07 1.8246e-36
6.108e-07 5.0241e-34
6.1366e-07 1.313e-34
6.1653e-07 2.6316e-35
6.1942e-07 5.3146e-36
6.2232e-07 7.7052e-37
6.2523e-07 2.6622e-37
6.2816e-07 1.9653e-33
6.311e-07 2.6492e-34
6.3405e-07 2.0778e-37
6.3702e-07 3.5705e-38
6.4e-07 6.8772e-38
6.43e-07 5.013e-34
6.4601e-07 2.0637e-37
6.4903e-07 8.5952e-35
6.5207e-07 1.6889e-33
6.5512e-07 3.2263e-33
6.5819e-07 3.904e-33
6.6127e-07 6.5095e-33
6.6437e-07 6.7343e-34
6.6748e-07 1.6315e-34
6.706e-07 3.5718e-34
6.7374e-07 5.1601e-38
6.769e-07 2.2161e-38
6.8006e-07 5.3365e-38
6.8325e-07 2.8345e-34
6.8645e-07 3.3428e-38
6.8966e-07 1.8859e-38
6.9289e-07 8.4292e-38
6.9613e-07 6.1326e-34
6.9939e-07 6.8957e-38
7.0267e-07 5.0186e-37
7.0595e-07 3.8547e-36
7.0926e-07 3.984e-34
7.1258e-07 1.0457e-32
7.1592e-07 8.0788e-32
7.1927e-07 1.163e-32
7.2263e-07 1.733e-32
7.2602e-07 1.5577e-33
7.2942e-07 2.0477e-33
7.3283e-07 2.068e-34
7.3626e-07 1.4801e-34
7.3971e-07 3.6846e-34
7.4317e-07 4.9822e-38
7.4665e-07 9.7688e-39
7.5015e-07 1.2521e-38
7.5366e-07 2.7696e-38
7.5719e-07 5.3331e-35
7.6073e-07 1.0113e-35
7.6429e-07 2.8723e-38
7.6787e-07 3.3986e-38
7.7146e-07 1.6782e-35
7.7508e-07 9.837e-35
7.787e-07 5.7546e-35
7.8235e-07 4.5179e-31
7.8601e-07 7.0503e-32
7.8969e-07 1.5716e-31
7.9339e-07 2.7572e-32
7.971e-07 8.5685e-33
8.0083e-07 1.1912e-33
8.0458e-07 6.2394e-33
8.0835e-07 6.2768e-34
8.1213e-07 3.1616e-33
8.1594e-07 1.0016e-36
8.1976e-07 5.3061e-33
8.2359e-07 1.74e-33
8.2745e-07 1.8372e-34
8.3132e-07 1.4147e-32
8.3522e-07 3.2859e-34
8.3913e-07 6.9264e-33
8.4305e-07 5.4666e-34
8.47e-07 3.5229e-37
8.5097e-07 3.3108e-34
8.5495e-07 1.5077e-34
8.5895e-07 6.48e-35
8.6297e-07 2.3659e-34
8.6701e-07 7.9525e-34
8.7107e-07 8.1053e-31
8.7515e-07 1.6026e-31
8.7925e-07 2.7948e-32
8.8336e-07 2.2621e-33
8.875e-07 7.8546e-34
8.9165e-07 2.6035e-34
8.9583e-07 2.6737e-32
9.0002e-07 4.8482e-33
9.0423e-07 5.1649e-35
9.0847e-07 6.3036e-32
9.1272e-07 4.2872e-32
9.1699e-07 2.0027e-33
9.2129e-07 7.0022e-31
9.256e-07 1.5875e-31
9.2993e-07 1.7548e-32
9.3429e-07 3.5499e-31
9.3866e-07 3.5153e-32
9.4305e-07 6.5981e-33
9.4747e-07 2.7272e-32
9.5e-07 1.1936e-32