Folder: Flick-RT/material/gas/smooth_input (part 5)

File: o2_uv_vis_T0_P0.txt
2.8e-07 3.0026e-31
2.8131e-07 3.4773e-31
2.8263e-07 6.4502e-32
2.8395e-07 5.139e-33
2.8528e-07 7.5534e-33
2.8662e-07 1.5999e-31
2.8796e-07 4.0053e-32
2.8931e-07 2.6696e-33
2.9066e-07 2.4865e-37
2.9202e-07 1.5477e-35
2.9339e-07 3.2521e-32
2.9476e-07 1.0661e-36
2.9614e-07 3.2651e-40
2.9753e-07 0
2.9892e-07 0
3.0032e-07 0
3.0173e-07 0
3.0314e-07 0
3.0456e-07 0
3.0598e-07 0
3.0742e-07 0
3.0885e-07 0
3.103e-07 0
3.1175e-07 0
3.1321e-07 0
3.1468e-07 0
3.1615e-07 0
3.1763e-07 0
3.1912e-07 0
3.2061e-07 0
3.2211e-07 0
3.2362e-07 0
3.2514e-07 0
3.2666e-07 0
3.2819e-07 0
3.2972e-07 0
3.3127e-07 0
3.3282e-07 0
3.3438e-07 0
3.3594e-07 0
3.3752e-07 0
3.391e-07 0
3.4068e-07 0
3.4228e-07 0
3.4388e-07 0
3.4549e-07 0
3.4711e-07 0
3.4873e-07 0
3.5036e-07 0
3.52e-07 0
3.5365e-07 0
3.5531e-07 0
3.5697e-07 0
3.5864e-07 0
3.6032e-07 0
3.6201e-07 0
3.637e-07 0
3.6541e-07 0
3.6712e-07 0
3.6884e-07 0
3.7056e-07 0
3.723e-07 0
3.7404e-07 0
3.7579e-07 0
3.7755e-07 0
3.7932e-07 0
3.8109e-07 0
3.8288e-07 0
3.8467e-07 0
3.8647e-07 0
3.8828e-07 0
3.901e-07 0
3.9192e-07 0
3.9376e-07 0
3.956e-07 0
3.9745e-07 0
3.9931e-07 0
4.0118e-07 0
4.0306e-07 0
4.0495e-07 0
4.0684e-07 0
4.0875e-07 0
4.1066e-07 0
4.1258e-07 0
4.1452e-07 0
4.1646e-07 0
4.1841e-07 0
4.2037e-07 0
4.2233e-07 0
4.2431e-07 0
4.263e-07 0
4.2829e-07 0
4.303e-07 0
4.3231e-07 0
4.3434e-07 0
4.3637e-07 0
4.3841e-07 0
4.4046e-07 0
4.4253e-07 0
4.446e-07 0
4.4668e-07 0
4.4877e-07 0
4.5087e-07 0
4.5298e-07 0
4.551e-07 0
4.5723e-07 0
4.5937e-07 0
4.6152e-07 0
4.6368e-07 0
4.6586e-07 0
4.6804e-07 0
4.7023e-07 0
4.7243e-07 0
4.7464e-07 0
4.7686e-07 0
4.7909e-07 0
4.8134e-07 0
4.8359e-07 0
4.8585e-07 0
4.8813e-07 0
4.9041e-07 0
4.9271e-07 0
4.9502e-07 0
4.9733e-07 0
4.9966e-07 0
5.02e-07 0
5.0435e-07 0
5.0671e-07 0
5.0909e-07 0
5.1147e-07 0
5.1386e-07 0
5.1627e-07 0
5.1869e-07 0
5.2111e-07 0
5.2355e-07 0
5.26e-07 0
5.2847e-07 0
5.3094e-07 0
5.3343e-07 0
5.3592e-07 0
5.3843e-07 0
5.4095e-07 0
5.4349e-07 0
5.4603e-07 0
5.4859e-07 0
5.5115e-07 0
5.5373e-07 0
5.5633e-07 0
5.5893e-07 0
5.6155e-07 0
5.6418e-07 0
5.6682e-07 0
5.6947e-07 0
5.7214e-07 4.0543e-38
5.7482e-07 6.9583e-37
5.7751e-07 5.3138e-36
5.8021e-07 1.5196e-32
5.8293e-07 2.5845e-33
5.8565e-07 5.0028e-35
5.884e-07 6.7175e-38
5.9115e-07 1.6253e-39
5.9392e-07 0
5.967e-07 0
5.9949e-07 0
6.023e-07 0
6.0512e-07 0
6.0795e-07 0
6.108e-07 0
6.1366e-07 0
6.1653e-07 0
6.1942e-07 2.3623e-37
6.2232e-07 2.254e-35
6.2523e-07 9.6867e-35
6.2816e-07 9.4244e-31
6.311e-07 2.1374e-31
6.3405e-07 1.7753e-32
6.3702e-07 3.4677e-34
6.4e-07 9.0412e-37
6.43e-07 1.8132e-38
6.4601e-07 8.6161e-41
6.4903e-07 0
6.5207e-07 0
6.5512e-07 0
6.5819e-07 0
6.6127e-07 0
6.6437e-07 0
6.6748e-07 0
6.706e-07 0
6.7374e-07 0
6.769e-07 2.7273e-36
6.8006e-07 4.4883e-34
6.8325e-07 1.6122e-33
6.8645e-07 1.7618e-30
6.8966e-07 3.1026e-30
6.9289e-07 6.0864e-31
6.9613e-07 8.2645e-32
6.9939e-07 1.1059e-32
7.0267e-07 8.7012e-34
7.0595e-07 6.6364e-37
7.0926e-07 7.3524e-38
7.1258e-07 7.7486e-40
7.1592e-07 0
7.1927e-07 0
7.2263e-07 0
7.2602e-07 0
7.2942e-07 0
7.3283e-07 0
7.3626e-07 0
7.3971e-07 3.9462e-41
7.4317e-07 1.0092e-39
7.4665e-07 1.6772e-38
7.5015e-07 3.4993e-33
7.5366e-07 1.2515e-32
7.5719e-07 4.7194e-32
7.6073e-07 3.1216e-29
7.6429e-07 1.3174e-29
7.6787e-07 2.0304e-30
7.7146e-07 1.8108e-31
7.7508e-07 3.5625e-32
7.787e-07 1.0185e-33
7.8235e-07 4.3892e-36
7.8601e-07 4.38e-37
7.8969e-07 8.9761e-39
7.9339e-07 0
7.971e-07 0
8.0083e-07 0
8.0458e-07 0
8.0835e-07 0
8.1213e-07 0
8.1594e-07 0
8.1976e-07 0
8.2359e-07 0
8.2745e-07 0
8.3132e-07 0
8.3522e-07 0
8.3913e-07 0
8.4305e-07 0
8.47e-07 2.6109e-38
8.5097e-07 3.5927e-37
8.5495e-07 1.0823e-36
8.5895e-07 5.4843e-36
8.6297e-07 1.4642e-32
8.6701e-07 7.1992e-33
8.7107e-07 5.591e-34
8.7515e-07 7.9223e-37
8.7925e-07 3.1284e-37
8.8336e-07 5.0025e-38
8.875e-07 2.6905e-41
8.9165e-07 0
8.9583e-07 0
9.0002e-07 0
9.0423e-07 0
9.0847e-07 0
9.1272e-07 0
9.1699e-07 0
9.2129e-07 0
9.256e-07 0
9.2993e-07 0
9.3429e-07 0
9.3866e-07 0
9.4305e-07 0
9.4747e-07 0
9.5e-07 0

File: o2_uv_vis_T0_P1.txt
2.8e-07 3.0528e-31
2.8131e-07 3.5442e-31
2.8263e-07 6.5174e-32
2.8395e-07 4.7237e-33
2.8528e-07 7.1367e-33
2.8662e-07 1.578e-31
2.8796e-07 4.0388e-32
2.8931e-07 2.59e-33
2.9066e-07 2.2457e-37
2.9202e-07 1.3497e-35
2.9339e-07 3.2393e-32
2.9476e-07 9.6927e-37
2.9614e-07 3.0583e-40
2.9753e-07 0
2.9892e-07 0
3.0032e-07 0
3.0173e-07 0
3.0314e-07 0
3.0456e-07 0
3.0598e-07 0
3.0742e-07 0
3.0885e-07 0
3.103e-07 0
3.1175e-07 0
3.1321e-07 0
3.1468e-07 0
3.1615e-07 0
3.1763e-07 0
3.1912e-07 0
3.2061e-07 0
3.2211e-07 0
3.2362e-07 0
3.2514e-07 0
3.2666e-07 0
3.2819e-07 0
3.2972e-07 0
3.3127e-07 0
3.3282e-07 0
3.3438e-07 0
3.3594e-07 0
3.3752e-07 0
3.391e-07 0
3.4068e-07 0
3.4228e-07 0
3.4388e-07 0
3.4549e-07 0
3.4711e-07 0
3.4873e-07 0
3.5036e-07 0
3.52e-07 0
3.5365e-07 0
3.5531e-07 0
3.5697e-07 0
3.5864e-07 0
3.6032e-07 0
3.6201e-07 0
3.637e-07 0
3.6541e-07 0
3.6712e-07 0
3.6884e-07 0
3.7056e-07 0
3.723e-07 0
3.7404e-07 0
3.7579e-07 0
3.7755e-07 0
3.7932e-07 0
3.8109e-07 0
3.8288e-07 0
3.8467e-07 0
3.8647e-07 0
3.8828e-07 0
3.901e-07 0
3.9192e-07 0
3.9376e-07 0
3.956e-07 0
3.9745e-07 0
3.9931e-07 0
4.0118e-07 0
4.0306e-07 0
4.0495e-07 0
4.0684e-07 0
4.0875e-07 0
4.1066e-07 0
4.1258e-07 0
4.1452e-07 0
4.1646e-07 0
4.1841e-07 0
4.2037e-07 0
4.2233e-07 0
4.2431e-07 0
4.263e-07 0
4.2829e-07 0
4.303e-07 0
4.3231e-07 0
4.3434e-07 0
4.3637e-07 0
4.3841e-07 0
4.4046e-07 0
4.4253e-07 0
4.446e-07 0
4.4668e-07 0
4.4877e-07 0
4.5087e-07 0
4.5298e-07 0
4.551e-07 0
4.5723e-07 0
4.5937e-07 0
4.6152e-07 0
4.6368e-07 0
4.6586e-07 0
4.6804e-07 0
4.7023e-07 0
4.7243e-07 0
4.7464e-07 0
4.7686e-07 0
4.7909e-07 0
4.8134e-07 0
4.8359e-07 0
4.8585e-07 0
4.8813e-07 0
4.9041e-07 0
4.9271e-07 0
4.9502e-07 0
4.9733e-07 0
4.9966e-07 0
5.02e-07 0
5.0435e-07 0
5.0671e-07 0
5.0909e-07 0
5.1147e-07 0
5.1386e-07 0
5.1627e-07 0
5.1869e-07 0
5.2111e-07 0
5.2355e-07 0
5.26e-07 0
5.2847e-07 0
5.3094e-07 0
5.3343e-07 0
5.3592e-07 0
5.3843e-07 0
5.4095e-07 0
5.4349e-07 0
5.4603e-07 0
5.4859e-07 0
5.5115e-07 0
5.5373e-07 0
5.5633e-07 0
5.5893e-07 0
5.6155e-07 0
5.6418e-07 0
5.6682e-07 0
5.6947e-07 0
5.7214e-07 3.6547e-38
5.7482e-07 6.271e-37
5.7751e-07 4.7877e-36
5.8021e-07 1.543e-32
5.8293e-07 2.633e-33
5.8565e-07 4.8425e-35
5.884e-07 6.0457e-38
5.9115e-07 1.4641e-39
5.9392e-07 0
5.967e-07 0
5.9949e-07 0
6.023e-07 0
6.0512e-07 0
6.0795e-07 0
6.108e-07 0
6.1366e-07 0
6.1653e-07 0
6.1942e-07 2.1259e-37
6.2232e-07 2.0288e-35
6.2523e-07 8.7257e-35
6.2816e-07 9.4339e-31
6.311e-07 2.1114e-31
6.3405e-07 1.7959e-32
6.3702e-07 3.4572e-34
6.4e-07 8.1485e-37
6.43e-07 1.6344e-38
6.4601e-07 7.776e-41
6.4903e-07 0
6.5207e-07 0
6.5512e-07 0
6.5819e-07 0
6.6127e-07 0
6.6437e-07 0
6.6748e-07 0
6.706e-07 0
6.7374e-07 0
6.769e-07 2.4537e-36
6.8006e-07 4.0438e-34
6.8325e-07 1.4532e-33
6.8645e-07 1.7874e-30
6.8966e-07 3.083e-30
6.9289e-07 6.0129e-31
6.9613e-07 8.2767e-32
6.9939e-07 1.0866e-32
7.0267e-07 8.8688e-34
7.0595e-07 5.9748e-37
7.0926e-07 6.6136e-38
7.1258e-07 6.9655e-40
7.1592e-07 0
7.1927e-07 0
7.2263e-07 0
7.2602e-07 0
7.2942e-07 0
7.3283e-07 0
7.3626e-07 0
7.3971e-07 3.5141e-41
7.4317e-07 9.077e-40
7.4665e-07 1.5107e-38
7.5015e-07 3.1553e-33
7.5366e-07 1.1311e-32
7.5719e-07 4.2675e-32
7.6073e-07 3.0356e-29
7.6429e-07 1.3028e-29
7.6787e-07 2.0141e-30
7.7146e-07 1.8007e-31
7.7508e-07 3.5132e-32
7.787e-07 9.9317e-34
7.8235e-07 3.9545e-36
7.8601e-07 3.9394e-37
7.8969e-07 8.0788e-39
7.9339e-07 0
7.971e-07 0
8.0083e-07 0
8.0458e-07 0
8.0835e-07 0
8.1213e-07 0
8.1594e-07 0
8.1976e-07 0
8.2359e-07 0
8.2745e-07 0
8.3132e-07 0
8.3522e-07 0
8.3913e-07 0
8.4305e-07 0
8.47e-07 2.3638e-38
8.5097e-07 3.246e-37
8.5495e-07 9.7781e-37
8.5895e-07 4.9685e-36
8.6297e-07 1.4655e-32
8.6701e-07 6.9735e-33
8.7107e-07 5.6498e-34
8.7515e-07 7.1603e-37
8.7925e-07 2.8239e-37
8.8336e-07 4.516e-38
8.875e-07 2.4243e-41
8.9165e-07 0
8.9583e-07 0
9.0002e-07 0
9.0423e-07 0
9.0847e-07 0
9.1272e-07 0
9.1699e-07 0
9.2129e-07 0
9.256e-07 0
9.2993e-07 0
9.3429e-07 0
9.3866e-07 0
9.4305e-07 0
9.4747e-07 0
9.5e-07 0

File: o2_uv_vis_T1_P0.txt
2.8e-07 2.6075e-31
2.8141e-07 2.717e-31
2.8282e-07 5.8169e-32
2.8424e-07 3.2949e-33
2.8567e-07 6.5582e-32
2.8711e-07 1.1748e-31
2.8855e-07 2.01e-32
2.9e-07 1.3148e-33
2.9145e-07 4.1307e-36
2.9292e-07 5.3594e-32
2.9439e-07 2.1241e-33
2.9587e-07 3.0697e-38
2.9736e-07 -0
2.9885e-07 -0
3.0035e-07 -0
3.0186e-07 -0
3.0338e-07 -0
3.049e-07 -0
3.0643e-07 -0
3.0797e-07 -0
3.0952e-07 -0
3.1108e-07 -0
3.1264e-07 -0
3.1421e-07 -0
3.1579e-07 -0
3.1738e-07 -0
3.1897e-07 -0
3.2057e-07 -0
3.2218e-07 -0
3.238e-07 -0
3.2543e-07 -0
3.2707e-07 -0
3.2871e-07 -0
3.3036e-07 -0
3.3202e-07 -0
3.3369e-07 -0
3.3537e-07 -0
3.3705e-07 -0
3.3874e-07 -0
3.4045e-07 -0
3.4216e-07 -0
3.4388e-07 -0
3.456e-07 -0
3.4734e-07 -0
3.4909e-07 -0
3.5084e-07 -0
3.526e-07 -0
3.5437e-07 -0
3.5615e-07 -0
3.5794e-07 -0
3.5974e-07 -0
3.6155e-07 -0
3.6337e-07 -0
3.6519e-07 -0
3.6703e-07 -0
3.6887e-07 -0
3.7073e-07 -0
3.7259e-07 -0
3.7446e-07 -0
3.7634e-07 -0
3.7823e-07 -0
3.8013e-07 -0
3.8204e-07 -0
3.8396e-07 -0
3.8589e-07 -0
3.8783e-07 -0
3.8978e-07 -0
3.9174e-07 -0
3.9371e-07 -0
3.9568e-07 -0
3.9767e-07 -0
3.9967e-07 -0
4.0168e-07 -0
4.037e-07 -0
4.0573e-07 -0
4.0776e-07 -0
4.0981e-07 -0
4.1187e-07 -0
4.1394e-07 -0
4.1602e-07 -0
4.1811e-07 -0
4.2021e-07 -0
4.2232e-07 -0
4.2445e-07 -0
4.2658e-07 -0
4.2872e-07 -0
4.3088e-07 -0
4.3304e-07 -0
4.3522e-07 -0
4.374e-07 -0
4.396e-07 -0
4.4181e-07 -0
4.4403e-07 -0
4.4626e-07 -0
4.485e-07 -0
4.5076e-07 -0
4.5302e-07 -0
4.553e-07 -0
4.5759e-07 -0
4.5989e-07 -0
4.622e-07 -0
4.6452e-07 -0
4.6685e-07 -0
4.692e-07 -0
4.7156e-07 -0
4.7393e-07 -0
4.7631e-07 -0
4.787e-07 -0
4.8111e-07 -0
4.8352e-07 -0
4.8595e-07 -0
4.8839e-07 -0
4.9085e-07 -0
4.9331e-07 -0
4.9579e-07 -0
4.9828e-07 -0
5.0079e-07 -0
5.033e-07 -0
5.0583e-07 -0
5.0837e-07 -0
5.1093e-07 -0
5.135e-07 -0
5.1608e-07 -0
5.1867e-07 -0
5.2127e-07 -0
5.2389e-07 -0
5.2653e-07 -0
5.2917e-07 -0
5.3183e-07 -0
5.345e-07 -0
5.3719e-07 -0
5.3989e-07 -0
5.426e-07 -0
5.4533e-07 -0
5.4807e-07 -0
5.5082e-07 -0
5.5359e-07 -0
5.5637e-07 -0
5.5917e-07 -0
5.6198e-07 -0
5.648e-07 -0
5.6764e-07 -0
5.7049e-07 -6.411e-44
5.7336e-07 4.3145e-37
5.7624e-07 2.6701e-36
5.7913e-07 2.3924e-32
5.8204e-07 7.7633e-33
5.8497e-07 1.8021e-34
5.8791e-07 1.8671e-37
5.9086e-07 5.9446e-39
5.9383e-07 6.7735e-42
5.9681e-07 -0
5.9981e-07 -0
6.0282e-07 -0
6.0585e-07 -0
6.089e-07 -0
6.1196e-07 -0
6.1503e-07 -0
6.1812e-07 -4.9315e-44
6.2123e-07 1.8353e-35
6.2435e-07 9.2506e-35
6.2749e-07 4.8394e-31
6.3064e-07 3.6313e-31
6.3381e-07 3.1457e-32
6.3699e-07 4.3085e-34
6.4019e-07 1.414e-36
6.4341e-07 2.389e-38
6.4664e-07 1.0597e-40
6.4989e-07 -0
6.5316e-07 -0
6.5644e-07 -0
6.5974e-07 -0
6.6305e-07 -0
6.6638e-07 -0
6.6973e-07 -0
6.731e-07 -0
6.7648e-07 1.7518e-35
6.7988e-07 6.192e-34
6.8329e-07 2.6516e-33
6.8673e-07 3.6423e-30
6.9018e-07 3.0577e-30
6.9365e-07 5.4383e-31
6.9713e-07 4.0779e-32
7.0063e-07 8.9753e-33
7.0415e-07 1.4068e-35
7.0769e-07 3.743e-37
7.1125e-07 1.8444e-38
7.1482e-07 -0
7.1841e-07 -0
7.2202e-07 -0
7.2565e-07 -0
7.293e-07 -0
7.3296e-07 -0
7.3664e-07 2.3918e-43
7.4035e-07 1.7812e-40
7.4407e-07 2.7191e-39
7.478e-07 4.9952e-34
7.5156e-07 9.245e-33
7.5534e-07 3.3132e-32
7.5913e-07 7.758e-30
7.6295e-07 1.7813e-29
7.6678e-07 5.2367e-30
7.7063e-07 5.5659e-31
7.7451e-07 7.3151e-32
7.784e-07 2.8678e-33
7.8231e-07 9.0872e-36
7.8624e-07 6.5344e-37
7.9019e-07 1.1979e-38
7.9416e-07 -0
7.9815e-07 -0
8.0216e-07 -0
8.0619e-07 -0
8.1024e-07 -0
8.1431e-07 -0
8.1841e-07 -0
8.2252e-07 -0
8.2665e-07 -0
8.308e-07 -0
8.3498e-07 -0
8.3917e-07 -0
8.4339e-07 -0
8.4763e-07 1.1881e-37
8.5189e-07 7.0337e-37
8.5617e-07 2.2657e-36
8.6047e-07 4.4275e-33
8.6479e-07 1.0339e-32
8.6914e-07 5.5067e-33
8.735e-07 2.4458e-36
8.7789e-07 6.6114e-37
8.823e-07 1.5936e-37
8.8674e-07 3.1956e-39
8.9119e-07 -0
8.9567e-07 -0
9.0017e-07 -0
9.0469e-07 -0
9.0924e-07 -0
9.1381e-07 -0
9.184e-07 -0
9.2301e-07 -0
9.2765e-07 -0
9.3231e-07 -0
9.37e-07 -0
9.4171e-07 -0
9.4644e-07 -0
9.5119e-07 -0
9.5597e-07 -0
9.6078e-07 -0
9.656e-07 -0
9.7046e-07 -0
9.7533e-07 -0
9.8023e-07 -0
9.8516e-07 -0
9.9011e-07 -0
9.9508e-07 -0
1.0001e-06 -0
1.0051e-06 -0
1.0102e-06 -0
1.0152e-06 -0
1.0203e-06 -0
1.0255e-06 1.1589e-43
1.0306e-06 2.9983e-40
1.0358e-06 7.8227e-39
1.041e-06 8.2842e-38
1.0462e-06 6.0947e-37
1.0515e-06 3.2353e-35
1.0568e-06 8.4871e-34
1.0621e-06 9.1527e-33
1.0674e-06 2.8231e-32
1.0728e-06 7.6836e-33
1.0782e-06 1.5526e-33
1.0836e-06 2.6219e-34
1.089e-06 2.289e-35
1.0945e-06 6.7774e-36
1.1e-06 2.582e-38

File: o2_uv_vis_toa_T0_P1.txt
2.8e-07 1.3294e-31
2.814e-07 1.6798e-31
2.8282e-07 3.9297e-32
2.8423e-07 2.5244e-33
2.8566e-07 6.1015e-32
2.8709e-07 9.6674e-32
2.8853e-07 1.6302e-32
2.8998e-07 3.8999e-34
2.9143e-07 1.6942e-36
2.929e-07 5.3079e-32
2.9437e-07 3.3425e-35
2.9584e-07 5.9088e-39
2.9733e-07 -0
2.9882e-07 -0
3.0032e-07 -0
3.0182e-07 -0
3.0334e-07 -0
3.0486e-07 -0
3.0639e-07 -0
3.0792e-07 -0
3.0947e-07 -0
3.1102e-07 -0
3.1258e-07 -0
3.1415e-07 -0
3.1572e-07 -0
3.1731e-07 -0
3.189e-07 -0
3.205e-07 -0
3.2211e-07 -0
3.2372e-07 -0
3.2535e-07 -0
3.2698e-07 -0
3.2862e-07 -0
3.3027e-07 -0
3.3192e-07 -0
3.3359e-07 -0
3.3526e-07 -0
3.3694e-07 -0
3.3863e-07 -0
3.4033e-07 -0
3.4204e-07 -0
3.4375e-07 -0
3.4548e-07 -0
3.4721e-07 -0
3.4895e-07 -0
3.507e-07 -0
3.5246e-07 -0
3.5423e-07 -0
3.5601e-07 -0
3.5779e-07 -0
3.5959e-07 -0
3.6139e-07 -0
3.632e-07 -0
3.6502e-07 -0
3.6686e-07 -0
3.687e-07 -0
3.7054e-07 -0
3.724e-07 -0
3.7427e-07 -0
3.7615e-07 -0
3.7804e-07 -0
3.7993e-07 -0
3.8184e-07 -0
3.8375e-07 -0
3.8568e-07 -0
3.8761e-07 -0
3.8956e-07 -0
3.9151e-07 -0
3.9347e-07 -0
3.9545e-07 -0
3.9743e-07 -0
3.9942e-07 -0
4.0143e-07 -0
4.0344e-07 -0
4.0546e-07 -0
4.075e-07 -0
4.0954e-07 -0
4.116e-07 -0
4.1366e-07 -0
4.1574e-07 -0
4.1782e-07 -0
4.1992e-07 -0
4.2202e-07 -0
4.2414e-07 -0
4.2627e-07 -0
4.2841e-07 -0
4.3055e-07 -0
4.3271e-07 -0
4.3488e-07 -0
4.3707e-07 -0
4.3926e-07 -0
4.4146e-07 -0
4.4368e-07 -0
4.459e-07 -0
4.4814e-07 -0
4.5038e-07 -0
4.5264e-07 -0
4.5491e-07 -0
4.572e-07 -0
4.5949e-07 -0
4.6179e-07 -0
4.6411e-07 -0
4.6644e-07 -0
4.6878e-07 -0
4.7113e-07 -0
4.7349e-07 -0
4.7587e-07 -0
4.7825e-07 -0
4.8065e-07 -0
4.8306e-07 -0
4.8549e-07 -0
4.8792e-07 -0
4.9037e-07 -0
4.9283e-07 -0
4.953e-07 -0
4.9779e-07 -0
5.0028e-07 -0
5.0279e-07 -0
5.0531e-07 -0
5.0785e-07 -0
5.104e-07 -0
5.1296e-07 -0
5.1553e-07 -0
5.1811e-07 -0
5.2071e-07 -0
5.2332e-07 -0
5.2595e-07 -0
5.2859e-07 -0
5.3124e-07 -0
5.339e-07 -0
5.3658e-07 -0
5.3927e-07 -0
5.4198e-07 -0
5.447e-07 -0
5.4743e-07 -0
5.5017e-07 -0
5.5293e-07 -0
5.5571e-07 -0
5.5849e-07 -0
5.613e-07 -0
5.6411e-07 -0
5.6694e-07 -0
5.6978e-07 -0
5.7264e-07 1.3338e-37
5.7551e-07 9.1005e-37
5.784e-07 7.8637e-33
5.813e-07 9.4459e-33
5.8422e-07 4.7661e-34
5.8715e-07 1.9972e-37
5.9009e-07 7.2725e-39
5.9305e-07 2.4877e-42
5.9603e-07 -0
5.9902e-07 -0
6.0202e-07 -0
6.0504e-07 -0
6.0808e-07 -0
6.1113e-07 -0
6.1419e-07 -0
6.1727e-07 -0
6.2037e-07 5.1722e-36
6.2348e-07 3.4627e-35
6.2661e-07 3.9205e-34
6.2975e-07 3.1947e-31
6.3291e-07 4.4891e-32
6.3608e-07 1.183e-33
6.3927e-07 1.8468e-36
6.4248e-07 3.3785e-38
6.457e-07 1.8924e-40
6.4894e-07 -0
6.522e-07 -0
6.5547e-07 -0
6.5876e-07 -0
6.6206e-07 -0
6.6538e-07 -0
6.6872e-07 -0
6.7207e-07 -0
6.7544e-07 -0
6.7883e-07 2.2708e-34
6.8224e-07 9.4981e-34
6.8566e-07 1.01e-32
6.891e-07 1.9648e-30
6.9255e-07 5.4048e-31
6.9603e-07 6.8767e-32
6.9952e-07 1.0296e-32
7.0303e-07 2.3501e-34
7.0655e-07 4.0918e-37
7.101e-07 2.9437e-38
7.1366e-07 -0
7.1724e-07 -0
7.2084e-07 -0
7.2445e-07 -0
7.2809e-07 -0
7.3174e-07 -0
7.3541e-07 -0
7.391e-07 1.4487e-41
7.428e-07 7.1466e-40
7.4653e-07 5.0717e-39
7.5027e-07 3.3572e-33
7.5404e-07 1.2694e-32
7.5782e-07 6.5204e-32
7.6162e-07 1.0587e-29
7.6544e-07 5.2307e-30
7.6928e-07 6.8194e-31
7.7314e-07 1.0265e-31
7.7702e-07 5.8933e-33
7.8091e-07 1.3933e-35
7.8483e-07 9.4785e-37
7.8877e-07 2.6486e-38
7.9272e-07 -0
7.967e-07 -0
8.007e-07 -0
8.0471e-07 -0
8.0875e-07 -0
8.1281e-07 -0
8.1688e-07 -0
8.2098e-07 -0
8.251e-07 -0
8.2924e-07 -0
8.334e-07 -0
8.3758e-07 -0
8.4178e-07 -0
8.46e-07 2.3025e-39
8.5024e-07 2.6929e-37
8.5451e-07 8.762e-37
8.5879e-07 3.7928e-36
8.631e-07 1.3386e-32
8.6743e-07 8.3249e-33
8.7178e-07 8.8439e-35
8.7615e-07 6.1506e-37
8.8055e-07 2.0719e-37
8.8496e-07 1.0429e-38
8.894e-07 -0
8.9386e-07 -0
8.9835e-07 -0
9.0285e-07 -0
9.0738e-07 -0
9.1193e-07 -0
9.1651e-07 -0
9.211e-07 -0
9.2572e-07 -0
9.3037e-07 -0
9.3503e-07 -0
9.3972e-07 -0
9.4444e-07 -0
9.4918e-07 -0
9.5394e-07 -0
9.5872e-07 -0
9.6353e-07 -0
9.6836e-07 -0
9.7322e-07 -0
9.781e-07 -0
9.8301e-07 -0
9.8794e-07 -0
9.9289e-07 -0
9.9787e-07 -0
1.0029e-06 -0
1.0079e-06 -0
1.013e-06 -0
1.018e-06 -0
1.0232e-06 -0
1.0283e-06 2.9984e-42
1.03e-06 4.7195e-41

File: o3_uv_vis_T0_P0.txt
2.8e-07 3.9325e-22
2.8131e-07 3.4397e-22
2.8263e-07 3.0419e-22
2.8395e-07 2.6754e-22
2.8528e-07 2.3106e-22
2.8662e-07 2.0424e-22
2.8796e-07 1.7143e-22
2.8931e-07 1.4784e-22
2.9066e-07 1.2803e-22
2.9202e-07 1.051e-22
2.9339e-07 8.9347e-23
2.9476e-07 7.5819e-23
2.9614e-07 6.1539e-23
2.9753e-07 5.1167e-23
2.9892e-07 4.3009e-23
3.0032e-07 3.5209e-23
3.0173e-07 2.8674e-23
3.0314e-07 2.3314e-23
3.0456e-07 1.9906e-23
3.0598e-07 1.6187e-23
3.0742e-07 1.2743e-23
3.0885e-07 1.1212e-23
3.103e-07 8.7772e-24
3.1175e-07 7.421e-24
3.1321e-07 5.8959e-24
3.1468e-07 4.4468e-24
3.1615e-07 3.8386e-24
3.1763e-07 3.4644e-24
3.1912e-07 2.1927e-24
3.2061e-07 1.9821e-24
3.2211e-07 1.9196e-24
3.2362e-07 9.4257e-25
3.2514e-07 1.387e-24
3.2666e-07 5.4092e-25
3.2819e-07 9.8787e-25
3.2972e-07 3.019e-25
3.3127e-07 6.2252e-25
3.3282e-07 1.9474e-25
3.3438e-07 2.9222e-25
3.3594e-07 9.9665e-26
3.3752e-07 2.764e-25
3.391e-07 6.7412e-26
3.4068e-07 1.1352e-25
3.4228e-07 3.1228e-26
3.4388e-07 9.1141e-26
3.4549e-07 3.2534e-26
3.4711e-07 3.033e-26
3.4873e-07 1.1392e-26
3.5036e-07 1.0179e-26
3.52e-07 2.3923e-26
3.5365e-07 5.7446e-27
3.5531e-07 5.0206e-27
3.5697e-07 3.5664e-27
3.5864e-07 1.5678e-27
3.6032e-07 4.3662e-27
3.6201e-07 1.2097e-27
3.637e-07 9.4094e-28
3.6541e-07 1.1745e-27
3.6712e-07 7.1016e-28
3.6884e-07 5.8656e-28
3.7056e-07 1.2179e-27
3.723e-07 7.6112e-28
3.7404e-07 6.7011e-28
3.7579e-07 1.1353e-27
3.7755e-07 7.5326e-28
3.7932e-07 5.3942e-28
3.8109e-07 5.3662e-28
3.8288e-07 5.4499e-28
3.8467e-07 5.6867e-28
3.8647e-07 5.5013e-28
3.8828e-07 8.1827e-28
3.901e-07 9.8892e-28
3.9192e-07 1.1023e-27
3.9376e-07 1.0374e-27
3.956e-07 1.2025e-27
3.9745e-07 1.1841e-27
3.9931e-07 1.227e-27
4.0118e-07 1.3331e-27
4.0306e-07 1.4817e-27
4.0495e-07 1.4392e-27
4.0684e-07 1.8297e-27
4.0875e-07 2.5473e-27
4.1066e-07 2.7607e-27
4.1258e-07 2.5453e-27
4.1452e-07 2.6585e-27
4.1646e-07 3.48e-27
4.1841e-07 3.7945e-27
4.2037e-07 3.808e-27
4.2233e-07 5.013e-27
4.2431e-07 6.7939e-27
4.263e-07 7.4493e-27
4.2829e-07 6.7034e-27
4.303e-07 6.7208e-27
4.3231e-07 8.5379e-27
4.3434e-07 9.1167e-27
4.3637e-07 9.163e-27
4.3841e-07 1.1527e-26
4.4046e-07 1.5651e-26
4.4253e-07 1.9189e-26
4.446e-07 1.8063e-26
4.4668e-07 1.5623e-26
4.4877e-07 1.7659e-26
4.5087e-07 2.0756e-26
4.5298e-07 2.0501e-26
4.551e-07 2.2139e-26
4.5723e-07 2.7886e-26
4.5937e-07 3.6565e-26
4.6152e-07 4.247e-26
4.6368e-07 3.96e-26
4.6586e-07 3.4754e-26
4.6804e-07 3.8555e-26
4.7023e-07 4.3817e-26
4.7243e-07 4.3787e-26
4.7464e-07 4.6501e-26
4.7686e-07 5.6917e-26
4.7909e-07 7.2289e-26
4.8134e-07 8.613e-26
4.8359e-07 8.7048e-26
4.8585e-07 7.9791e-26
4.8813e-07 7.8028e-26
4.9041e-07 8.4927e-26
4.9271e-07 8.8865e-26
4.9502e-07 9.101e-26
4.9733e-07 1.0035e-25
4.9966e-07 1.2018e-25
5.02e-07 1.4731e-25
5.0435e-07 1.7235e-25
5.0671e-07 1.7345e-25
5.0909e-07 1.646e-25
5.1147e-07 1.5898e-25
5.1386e-07 1.6443e-25
5.1627e-07 1.7312e-25
5.1869e-07 1.8068e-25
5.2111e-07 1.9088e-25
5.2355e-07 2.0961e-25
5.26e-07 2.3348e-25
5.2847e-07 2.5921e-25
5.3094e-07 2.8047e-25
5.3343e-07 2.9078e-25
5.3592e-07 2.9108e-25
5.3843e-07 2.9333e-25
5.4095e-07 3.1051e-25
5.4349e-07 3.255e-25
5.4603e-07 3.3875e-25
5.4859e-07 3.4245e-25
5.5115e-07 3.4892e-25
5.5373e-07 3.5738e-25
5.5633e-07 3.7149e-25
5.5893e-07 3.9411e-25
5.6155e-07 4.2133e-25
5.6418e-07 4.4469e-25
5.6682e-07 4.6335e-25
5.6947e-07 4.9034e-25
5.7214e-07 5.0186e-25
5.7482e-07 5.0576e-25
5.7751e-07 4.9597e-25
5.8021e-07 4.7926e-25
5.8293e-07 4.6761e-25
5.8565e-07 4.6237e-25
5.884e-07 4.8685e-25
5.9115e-07 4.9563e-25
5.9392e-07 5.0942e-25
5.967e-07 5.3293e-25
5.9949e-07 5.4771e-25
6.023e-07 5.4579e-25
6.0512e-07 5.3323e-25
6.0795e-07 5.1143e-25
6.108e-07 4.8665e-25
6.1366e-07 4.6717e-25
6.1653e-07 4.4795e-25
6.1942e-07 4.3119e-25
6.2232e-07 4.1711e-25
6.2523e-07 4.0486e-25
6.2816e-07 4.0739e-25
6.311e-07 3.7893e-25
6.3405e-07 3.6137e-25
6.3702e-07 3.4236e-25
6.4e-07 3.231e-25
6.43e-07 3.058e-25
6.4601e-07 3.0101e-25
6.4903e-07 2.9412e-25
6.5207e-07 2.8123e-25
6.5512e-07 2.6299e-25
6.5819e-07 2.4455e-25
6.6127e-07 2.2648e-25
6.6437e-07 2.1273e-25
6.6748e-07 1.9721e-25
6.706e-07 1.8289e-25
6.7374e-07 1.7048e-25
6.769e-07 1.5997e-25
6.8006e-07 1.5129e-25
6.8325e-07 1.4583e-25
6.8645e-07 1.445e-25
6.8966e-07 1.4383e-25
6.9289e-07 1.3361e-25
6.9613e-07 1.2321e-25
6.9939e-07 1.1645e-25
7.0267e-07 1.0918e-25
7.0595e-07 1.0273e-25
7.0926e-07 9.5804e-26
7.1258e-07 9.2007e-26
7.1592e-07 9.6099e-26
7.1927e-07 1.0515e-25
7.2263e-07 8.556e-26
7.2602e-07 8.8529e-26
7.2942e-07 8.16e-26
7.3283e-07 7.0545e-26
7.3626e-07 6.8279e-26
7.3971e-07 6.3642e-26
7.4317e-07 6.0367e-26
7.4665e-07 6.0513e-26
7.5015e-07 5.6905e-26
7.5366e-07 4.9052e-26
7.5719e-07 4.497e-26
7.6073e-07 5.9054e-26
7.6429e-07 5.3258e-26
7.6787e-07 4.4483e-26
7.7146e-07 4.1182e-26
7.7508e-07 4.3656e-26
7.787e-07 4.6616e-26
7.8235e-07 4.4211e-26
7.8601e-07 4.0544e-26
7.8969e-07 4.0491e-26
7.9339e-07 3.0954e-26
7.971e-07 0
8.0083e-07 0
8.0458e-07 0
8.0835e-07 0
8.1213e-07 0
8.1594e-07 0
8.1976e-07 0
8.2359e-07 0
8.2745e-07 0
8.3132e-07 0
8.3522e-07 0
8.3913e-07 0
8.4305e-07 0
8.47e-07 0
8.5097e-07 0
8.5495e-07 0
8.5895e-07 0
8.6297e-07 0
8.6701e-07 0
8.7107e-07 0
8.7515e-07 0
8.7925e-07 0
8.8336e-07 0
8.875e-07 0
8.9165e-07 0
8.9583e-07 0
9.0002e-07 0
9.0423e-07 0
9.0847e-07 0
9.1272e-07 0
9.1699e-07 0
9.2129e-07 0
9.256e-07 0
9.2993e-07 0
9.3429e-07 0
9.3866e-07 0
9.4305e-07 0
9.4747e-07 0
9.5e-07 0